"rt","PosX","PosY","hit","trial_dur","trialStart","changeOnset","key_time","first_image","second_image","image_duration","mask_duration","change_onset_alt","trial_index","sbj_id","cond"
2935.399999976158,929.792,251.904,true,4669.200000047684,1758084.2999999523,1758407.3999999762,1761342.7999999523,"example_a.jpg","example_b.jpg",240,80,1,5,"101021",1
749.4000000953674,753.664,350.208,false,2580.9000000953674,1767547.5999999046,1768196.0999999046,1768945.5,"Scene23_CON.png","Scene23_SEM.png",240,80,2,9,"101021",1
6616.800000071526,176.128,518.144,true,9022.299999952316,1773495.3999999762,1774797.5999999046,1781414.3999999762,"Scene37_CON.png","Scene37_SEM.png",240,80,4,12,"101021",1
822.8000000715256,282.624,303.104,true,2106.6999999284744,1785409.3999999762,1785736.5999999046,1786559.3999999762,"Scene10_CON.png","Scene10_SEM.png",240,80,1,15,"101021",1
962.7999999523163,296.96,610.304,true,3083.100000023842,1790525.7999999523,1791832.3999999762,1792795.1999999285,"Scene39_CON.png","Scene39_SEM.png",240,80,4,18,"101021",1
5693.700000047684,806.912,360.448,true,6977.900000095367,1796453.5999999046,1796779.6999999285,1802473.3999999762,"Scene1_CON.png","Scene1_SEM.png",240,80,1,21,"101021",1
2911.100000023842,823.296,421.888,true,5115.600000023842,1806272.3999999762,1807566.5999999046,1810477.6999999285,"Scene47_CON.png","Scene47_SEM.png",240,80,4,24,"101021",1
655.2999999523163,550.912,446.464,true,1767.1000000238419,1814095.2999999523,1814420,1815075.2999999523,"Scene8_CON.png","Scene8_SEM.png",240,80,1,27,"101021",1
2564.7999999523163,595.968,595.968,true,4282.699999928474,1818528,1819182.7999999523,1821747.5999999046,"Scene19_CON.png","Scene19_SEM.png",240,80,2,30,"101021",1
942.0999999046326,79.872,253.952,true,2958.600000023842,1825632.2999999523,1826612,1827554.0999999046,"Scene30_CON.png","Scene30_SEM.png",240,80,3,33,"101021",1
3092.7000000476837,813.056,600.064,true,5688.100000023842,1831424.6999999285,1833054.5999999046,1836147.2999999523,"Scene61_CON.png","Scene61_SEM.png",240,80,5,36,"101021",1
2963.2999999523163,321.536,538.624,true,5080.799999952316,1840182.5,1841487.5,1844450.7999999523,"Scene49_CON.png","Scene49_SEM.png",240,80,4,39,"101021",1
2887.100000023842,722.944,507.904,true,5172,1848102.5999999046,1849731.5999999046,1852618.6999999285,"Scene59_CON.png","Scene59_SEM.png",240,80,5,42,"101021",1
464.90000009536743,770.048,372.736,true,2373.5,1856666.7999999523,1857966.5999999046,1858431.5,"Scene46_CON.png","Scene46_SEM.png",240,80,4,45,"101021",1
1710.5999999046326,317.44,421.888,true,3209.100000023842,1881072.2999999523,1881724.5,1883435.0999999046,"Scene18_CON.png","Scene18_SEM.png",240,80,2,48,"101021",1
1214.8999999761581,163.84,372.736,true,2459.7999999523163,1887221.3999999762,1887546,1888760.8999999762,"Scene5_CON.png","Scene5_SEM.png",240,80,1,51,"101021",1
1401.8999999761581,358.4,342.016,true,2836.899999976158,1892570.8999999762,1893228.1999999285,1894630.0999999046,"Scene14_CON.png","Scene14_SEM.png",240,80,2,54,"101021",1
550.3000000715256,245.76,286.72,true,2344,1898290.0999999046,1899262.1999999285,1899812.5,"Scene32_CON.png","Scene32_SEM.png",240,80,3,57,"101021",1
2901.4000000953674,933.888,489.472,true,4236.200000047684,1903386.1999999285,1903714.0999999046,1906615.5,"Scene2_CON.png","Scene2_SEM.png",240,80,1,60,"101021",1
2253.600000023842,811.008,389.12,true,3355.2000000476837,1910575.5999999046,1910905.2999999523,1913158.8999999762,"Scene7_CON.png","Scene7_SEM.png",240,80,1,63,"101021",1
1262.5999999046326,425.984,624.64,true,3446.9000000953674,1916933.5999999046,1918240,1919502.5999999046,"Scene43_CON.png","Scene43_SEM.png",240,80,4,66,"101021",1
1805.5,212.992,555.008,true,4192.5,1923328.3999999762,1924953.3999999762,1926758.8999999762,"Scene53_CON.png","Scene53_SEM.png",240,80,5,69,"101021",1
671.7000000476837,323.584,417.792,true,3019.399999976158,1932100.2999999523,1933731.5999999046,1934403.2999999523,"Scene56_CON.png","Scene56_SEM.png",240,80,5,72,"101021",1
763.4000000953674,587.776,270.336,true,2672,1938048.3999999762,1939022.5999999046,1939786,"Scene31_CON.png","Scene31_SEM.png",240,80,3,75,"101021",1
1710,933.888,276.48,true,3658.2999999523163,1943546.3999999762,1944518.1999999285,1946228.1999999285,"Scene25_CON.png","Scene25_SEM.png",240,80,3,78,"101021",1
1245.8999999761581,475.136,55.296,true,2469.2000000476837,1950272.2999999523,1950600.8999999762,1951846.7999999523,"Scene4_CON.png","Scene4_SEM.png",240,80,1,81,"101021",1
4921.799999952316,364.544,679.936,true,6121.600000023842,1955608.8999999762,1955935.7999999523,1960857.5999999046,"Scene11_CON.png","Scene11_SEM.png",240,80,1,84,"101021",1
554,882.688,247.808,true,2593.399999976158,1964699,1965675.6999999285,1966229.6999999285,"Scene26_CON.png","Scene26_SEM.png",240,80,3,87,"101021",1
1137.1000000238419,43.008,382.976,true,3116.399999976158,1971690.7999999523,1972665.2999999523,1973802.3999999762,"Scene35_CON.png","Scene35_SEM.png",240,80,3,90,"101021",1
1280.6999999284744,690.176,276.48,true,3053.399999976158,1977477.2999999523,1978131.8999999762,1979412.5999999046,"Scene15_CON.png","Scene15_SEM.png",240,80,2,93,"101021",1
933.8000000715256,563.2,491.52,true,3174.2999999523163,1983434.7999999523,1984739.5999999046,1985673.3999999762,"Scene48_CON.png","Scene48_SEM.png",240,80,4,96,"101021",1
1016.2000000476837,124.928,542.72,true,3521.899999976158,1993299.5,1994926.6999999285,1995942.8999999762,"Scene50_CON.png","Scene50_SEM.png",240,80,5,99,"101021",1
987.6000000238419,614.4,313.344,true,3145.1999999284744,1999616.8999999762,2000594.1999999285,2001581.7999999523,"Scene36_CON.png","Scene36_SEM.png",240,80,3,102,"101021",1
633.7000000476837,880.64,579.584,true,2855.7999999523163,2005546.7999999523,2006846.5999999046,2007480.2999999523,"Scene38_CON.png","Scene38_SEM.png",240,80,4,105,"101021",1
1983,540.672,229.376,true,4486.699999928474,2034763,2036390.8999999762,2038373.8999999762,"Scene54_CON.png","Scene54_SEM.png",240,80,5,108,"101021",1
939.5,397.312,421.888,true,2812.0999999046326,2042325,2043305.2999999523,2044244.7999999523,"Scene28_CON.png","Scene28_SEM.png",240,80,3,111,"101021",1
2908.4000000953674,608.256,458.752,true,4553.299999952316,2047925.3999999762,2048575.5999999046,2051484,"Scene22_CON.png","Scene22_SEM.png",240,80,2,114,"101021",1
2921.399999976158,395.264,544.768,true,4572.200000047684,2055200.2999999523,2055854.6999999285,2058776.0999999046,"Scene20_CON.png","Scene20_SEM.png",240,80,2,117,"101021",1
582.5,749.568,581.632,true,2485.899999976158,2062676.3999999762,2063656.8999999762,2064239.3999999762,"Scene34_CON.png","Scene34_SEM.png",240,80,3,120,"101021",1
1312.2999999523163,337.92,591.872,true,2763.600000023842,2068087.0999999046,2068742.2999999523,2070054.5999999046,"Scene24_CON.png","Scene24_SEM.png",240,80,2,123,"101021",1
3657.899999976158,374.784,681.984,true,5869.399999976158,2073981.3999999762,2075279.5,2078937.3999999762,"Scene41_CON.png","Scene41_SEM.png",240,80,4,126,"101021",1
1217.7000000476837,421.888,532.48,true,2792.7000000476837,2106462.1999999285,2107112.6999999285,2108330.399999976,"Scene16_CON.png","Scene16_SEM.png",240,80,2,129,"101021",1
1387.1000000238419,630.784,430.08,true,3390.5,2112480.6999999285,2113779.899999976,2115167,"Scene44_CON.png","Scene44_SEM.png",240,80,4,132,"101021",1
2449.5999999046326,694.272,512,true,4357.700000047684,2118734.1999999285,2119716,2122165.5999999046,"Scene33_CON.png","Scene33_SEM.png",240,80,3,135,"101021",1
552.8999999761581,557.056,319.488,true,2903.899999976158,2125942.1999999285,2127243.6999999285,2127796.5999999046,"Scene42_CON.png","Scene42_SEM.png",240,80,4,138,"101021",1
603.6000000238419,567.296,313.344,true,3261.5,2131824.0999999046,2133442.399999976,2134046,"Scene51_CON.png","Scene51_SEM.png",240,80,5,141,"101021",1
1863.8999999761581,194.56,659.456,true,4423.600000023842,2137957.5999999046,2139583.899999976,2141447.7999999523,"Scene62_CON.png","Scene62_SEM.png",240,80,5,144,"101021",1
818.7999999523163,677.888,493.568,true,3316.7000000476837,2146260.1999999285,2147889.399999976,2148708.1999999285,"Scene57_CON.png","Scene57_SEM.png",240,80,5,147,"101021",1
1571.2999999523163,108.544,450.56,true,3210.7000000476837,2152544.2999999523,2153193.2999999523,2154764.5999999046,"Scene13_CON.png","Scene13_SEM.png",240,80,2,150,"101021",1
2178.2999999523163,858.112,79.872,true,5707.600000023842,2158833.2999999523,2159159,2161337.2999999523,"Scene9_CON.png","Scene9_SEM.png",240,80,1,153,"101021",1
590.1999999284744,706.56,454.656,true,2162,2167531,2168178.5,2168768.6999999285,"Scene17_CON.png","Scene17_SEM.png",240,80,2,156,"101021",1
1531.1999999284744,569.344,464.896,true,4533.899999976158,2172831.399999976,2173156,2174687.1999999285,"Scene6_CON.png","Scene6_SEM.png",240,80,1,159,"101021",1
1791.3999999761581,348.16,645.12,true,4759,2180381.399999976,2182009.6999999285,2183801.0999999046,"Scene60_CON.png","Scene60_SEM.png",240,80,5,162,"101021",1
690.2999999523163,192.512,538.624,true,2957.6999999284744,2188480.399999976,2189460,2190150.2999999523,"Scene29_CON.png","Scene29_SEM.png",240,80,3,165,"101021",1
546.1000000238419,249.856,581.632,true,2675.899999976158,2196773.6999999285,2198078.5999999046,2198624.6999999285,"Scene45_CON.png","Scene45_SEM.png",240,80,4,168,"101021",1
894.1000000238419,507.904,528.384,true,2778.899999976158,2202506.899999976,2203481.1999999285,2204375.2999999523,"Scene27_CON.png","Scene27_SEM.png",240,80,3,171,"101021",1
1427.5,794.624,579.584,true,3064.3000000715256,2208832.5999999046,2209486.5999999046,2210914.0999999046,"Scene21_CON.png","Scene21_SEM.png",240,80,2,174,"101021",1
1163.7000000476837,526.336,483.328,true,3568.100000023842,2214714.899999976,2216340.0999999046,2217503.7999999523,"Scene58_CON.png","Scene58_SEM.png",240,80,5,177,"101021",1
748.5,522.24,376.832,true,1798.3000000715256,2221172.1999999285,2221500.5,2222249,"Scene3_CON.png","Scene3_SEM.png",240,80,1,180,"101021",1
644.8000000715256,235.52,526.336,true,2897.2000000476837,2226805.7999999523,2228106.0999999046,2228750.899999976,"Scene40_CON.png","Scene40_SEM.png",240,80,4,183,"101021",1
4028.5,329.728,653.312,true,6877.800000071526,2232522.1999999285,2234153.0999999046,2238181.5999999046,"Scene52_CON.png","Scene52_SEM.png",240,80,5,186,"101021",1
1476.7999999523163,628.736,528.384,true,4192.100000023842,2245466.899999976,2247092,2248568.7999999523,"Scene55_CON.png","Scene55_SEM.png",240,80,5,189,"101021",1
656.2999999523163,536.576,540.672,true,2206.2999999523163,2252725,2253050.2999999523,2253706.5999999046,"Scene12_CON.png","Scene12_SEM.png",240,80,1,192,"101021",1
3655.100000023842,929.792,229.376,true,5149.100000023842,22669.399999976158,22998.399999976158,26653.5,"example_a.jpg","example_b.jpg",240,80,1,5,"101021",1
1727.1000000238419,309.248,563.2,true,3869.100000023842,32930.299999952316,34232.89999997616,35960,"Scene49_CON.png","Scene49_SEM.png",240,80,4,9,"101021",1
1539.6000000238419,479.232,518.144,true,3525.1999999284744,39554,40527.199999928474,42066.799999952316,"Scene27_CON.png","Scene27_SEM.png",240,80,3,12,"101021",1
388.6999999284744,688.128,512,true,2306.100000023842,46649.199999928474,47620.5,48009.199999928474,"Scene33_CON.png","Scene33_SEM.png",240,80,3,15,"101021",1
610.3999999761581,528.384,638.976,false,3941.7000000476837,51843.799999952316,52169.89999997616,52780.299999952316,"Scene9_CON.png","Scene9_SEM.png",240,80,1,18,"101021",1
3418.9000000953674,751.616,393.216,true,5732.899999976158,58899.5,60199.59999990463,63618.5,"Scene46_CON.png","Scene46_SEM.png",240,80,4,21,"101021",1
833.4000000953674,796.672,430.08,true,2917.2999999523163,67587.79999995232,68887.59999990463,69721,"Scene47_CON.png","Scene47_SEM.png",240,80,4,24,"101021",1
2235.899999976158,905.216,491.52,true,3544.100000023842,73232.59999990463,73559.69999992847,75795.59999990463,"Scene2_CON.png","Scene2_SEM.png",240,80,1,27,"101021",1
1483.7999999523163,131.072,571.392,true,4157.200000047684,79651.79999995232,81281.79999995232,82765.59999990463,"Scene50_CON.png","Scene50_SEM.png",240,80,5,30,"101021",1
800.0999999046326,606.208,595.968,true,2324.600000023842,86691.79999995232,87336.5,88136.59999990463,"Scene19_CON.png","Scene19_SEM.png",240,80,2,33,"101021",1
1808.6000000238419,358.4,401.408,true,3289.899999976158,91929,92577.69999992847,94386.29999995232,"Scene18_CON.png","Scene18_SEM.png",240,80,2,36,"101021",1
503.6999999284744,243.712,548.864,true,2587.7000000476837,97893.79999995232,99196.89999997616,99700.59999990463,"Scene45_CON.png","Scene45_SEM.png",240,80,4,39,"101021",1
925.5,296.96,290.816,true,2060.7999999523163,103283.39999997616,103612.29999995232,104537.79999995232,"Scene10_CON.png","Scene10_SEM.png",240,80,1,42,"101021",1
432.10000002384186,643.072,491.52,true,3042.399999976158,108137.19999992847,109763.29999995232,110195.39999997616,"Scene55_CON.png","Scene55_SEM.png",240,80,5,45,"101021",1
1647.2999999523163,624.64,301.056,true,3717,116547.89999997616,117522.29999995232,119169.59999990463,"Scene36_CON.png","Scene36_SEM.png",240,80,3,48,"101021",1
369.89999997615814,303.104,655.36,true,2661.5,123305,124601.89999997616,124971.79999995232,"Scene39_CON.png","Scene39_SEM.png",240,80,4,51,"101021",1
1211.6000000238419,890.88,245.76,true,3273.899999976158,128760.39999997616,129735.59999990463,130947.19999992847,"Scene26_CON.png","Scene26_SEM.png",240,80,3,54,"101021",1
1800.7000000476837,638.976,458.752,true,4324.799999952316,135165.89999997616,136791.09999990463,138591.79999995232,"Scene59_CON.png","Scene59_SEM.png",240,80,5,57,"101021",1
503.6999999284744,698.368,563.2,true,2388.600000023842,142165.09999990463,143141.5,143645.19999992847,"Scene34_CON.png","Scene34_SEM.png",240,80,3,60,"101021",1
718.2000000476837,784.384,573.44,true,2279.899999976158,147570,148216.79999995232,148935,"Scene21_CON.png","Scene21_SEM.png",240,80,2,63,"101021",1
440.1999999284744,423.936,520.192,true,1974.1000000238419,152547.29999995232,153196.89999997616,153637.09999990463,"Scene16_CON.png","Scene16_SEM.png",240,80,2,66,"101021",1
1348.0999999046326,688.128,278.528,true,3025.2999999523163,157166.5,157818,159166.09999990463,"Scene15_CON.png","Scene15_SEM.png",240,80,2,69,"101021",1
485.1999999284744,567.296,337.92,true,3033.399999976158,163367.19999992847,164999,165484.19999992847,"Scene51_CON.png","Scene51_SEM.png",240,80,5,72,"101021",1
1165.6000000238419,188.416,499.712,true,3405.2000000476837,169395.69999992847,170695.59999990463,171861.19999992847,"Scene37_CON.png","Scene37_SEM.png",240,80,4,75,"101021",1
778.5999999046326,233.472,434.176,true,1893.1999999284744,177072.39999997616,177399.5,178178.09999990463,"Scene5_CON.png","Scene5_SEM.png",240,80,1,78,"101021",1
435.8000000715256,724.992,456.704,true,3030.2999999523163,182240.39999997616,183864.19999992847,184300,"Scene57_CON.png","Scene57_SEM.png",240,80,5,81,"101021",1
400.60000002384186,579.584,403.456,true,1460.6999999284744,188072.89999997616,188396.89999997616,188797.5,"Scene8_CON.png","Scene8_SEM.png",240,80,1,84,"101021",1
2072.7999999523163,176.128,557.056,true,4512.5,192235.69999992847,193864.29999995232,195937.09999990463,"Scene53_CON.png","Scene53_SEM.png",240,80,5,87,"101021",1
554.1000000238419,663.552,466.944,true,2293.7000000476837,220072.19999992847,220722.19999992847,221276.29999995232,"Scene17_CON.png","Scene17_SEM.png",240,80,2,90,"101021",1
720,550.912,495.616,true,2848.899999976158,225390.39999997616,226690.29999995232,227410.29999995232,"Scene48_CON.png","Scene48_SEM.png",240,80,4,93,"101021",1
1303,548.864,333.824,true,3489.8000000715256,231193.09999990463,232493,233796,"Scene42_CON.png","Scene42_SEM.png",240,80,4,96,"101021",1
723.9000000953674,567.296,530.432,true,1785.8000000715256,237629.19999992847,237955.59999990463,238679.5,"Scene12_CON.png","Scene12_SEM.png",240,80,1,99,"101021",1
805.8000000715256,489.472,481.28,true,3216.2000000476837,242229.09999990463,243863.69999992847,244669.5,"Scene58_CON.png","Scene58_SEM.png",240,80,5,102,"101021",1
2457.899999976158,73.728,247.808,true,4392.5,281228.59999990463,282204.89999997616,284662.7999999523,"Scene30_CON.png","Scene30_SEM.png",240,80,3,105,"101021",1
612.7000000476837,425.984,624.64,true,2806.5,288494.39999997616,289799.59999990463,290412.2999999523,"Scene43_CON.png","Scene43_SEM.png",240,80,4,108,"101021",1
685,624.64,491.52,true,2791.7999999523163,294308.5,295612.89999997616,296297.89999997616,"Scene44_CON.png","Scene44_SEM.png",240,80,4,111,"101021",1
854.3000000715256,49.152,376.832,true,2920.3000000715256,299971.59999990463,300941.09999990463,301795.39999997616,"Scene35_CON.png","Scene35_SEM.png",240,80,3,114,"101021",1
1969.3999999761581,333.824,673.792,true,4543.799999952316,306238.2999999523,307864.39999997616,309833.7999999523,"Scene52_CON.png","Scene52_SEM.png",240,80,5,117,"101021",1
423.5,378.88,593.92,true,1721.1000000238419,313593.09999990463,314240.6999999285,314664.1999999285,"Scene24_CON.png","Scene24_SEM.png",240,80,2,120,"101021",1
520.2000000476837,219.136,272.384,true,2327.6999999284744,318184.89999997616,319154.2999999523,319674.5,"Scene32_CON.png","Scene32_SEM.png",240,80,3,123,"101021",1
718.1000000238419,561.152,278.528,true,3093.7999999523163,323192.89999997616,324815.59999990463,325533.6999999285,"Scene54_CON.png","Scene54_SEM.png",240,80,5,126,"101021",1
608.2999999523163,544.768,313.344,true,2353.100000023842,328952.89999997616,329930.5,330538.7999999523,"Scene31_CON.png","Scene31_SEM.png",240,80,3,129,"101021",1
1631.1999999284744,497.664,59.392,true,2990.5,334195.2999999523,334518.39999997616,336149.59999990463,"Scene4_CON.png","Scene4_SEM.png",240,80,1,132,"101021",1
472.5,354.304,634.88,true,2964.5,340398.2999999523,342023.59999990463,342496.09999990463,"Scene60_CON.png","Scene60_SEM.png",240,80,5,135,"101021",1
689.1000000238419,366.592,380.928,true,2095.399999976158,346483.5,347134.89999997616,347824,"Scene14_CON.png","Scene14_SEM.png",240,80,2,138,"101021",1
2313.2999999523163,346.112,399.36,true,4072.3000000715256,351187.6999999285,352162.2999999523,354475.59999990463,"Scene28_CON.png","Scene28_SEM.png",240,80,3,141,"101021",1
1498.8999999761581,806.912,589.824,true,4224.100000023842,358099.59999990463,359724.89999997616,361223.7999999523,"Scene61_CON.png","Scene61_SEM.png",240,80,5,144,"101021",1
509.60000002384186,595.968,473.088,true,1848.1000000238419,365283.59999990463,365939.6999999285,366449.2999999523,"Scene22_CON.png","Scene22_SEM.png",240,80,2,147,"101021",1
808.8999999761581,397.312,565.248,true,2348.0999999046326,369895,370546.1999999285,371355.09999990463,"Scene20_CON.png","Scene20_SEM.png",240,80,2,150,"101021",1
806.8000000715256,528.384,471.04,true,1949.8000000715256,375374.09999990463,375700.1999999285,376507,"Scene6_CON.png","Scene6_SEM.png",240,80,1,153,"101021",1
707.1000000238419,376.832,643.072,true,1787.6000000238419,380274.09999990463,380599.59999990463,381306.6999999285,"Scene11_CON.png","Scene11_SEM.png",240,80,1,156,"101021",1
1015.7000000476837,835.584,432.128,true,2239.7000000476837,384716.1999999285,385045.59999990463,386061.2999999523,"Scene7_CON.png","Scene7_SEM.png",240,80,1,159,"101021",1
555.8000000715256,346.112,538.624,true,2961.899999976158,389795.6999999285,391413.6999999285,391969.5,"Scene56_CON.png","Scene56_SEM.png",240,80,5,162,"101021",1
556.8000000715256,907.264,598.016,true,2990.899999976158,395434.89999997616,396741.6999999285,397298.5,"Scene38_CON.png","Scene38_SEM.png",240,80,4,165,"101021",1
315.7000000476837,139.264,684.032,true,4413.800000071526,402221.59999990463,403842.09999990463,404157.7999999523,"Scene62_CON.png","Scene62_SEM.png",240,80,5,168,"101021",1
1352.3999999761581,800.768,376.832,true,2665.1999999284744,409390.5,409714.39999997616,411066.7999999523,"Scene1_CON.png","Scene1_SEM.png",240,80,1,171,"101021",1
411.39999997615814,409.6,634.88,true,2721.600000023842,414829.39999997616,416125,416536.39999997616,"Scene41_CON.png","Scene41_SEM.png",240,80,4,174,"101021",1
579.3999999761581,223.232,559.104,true,2715.399999976158,420223.2999999523,421522.2999999523,422101.6999999285,"Scene40_CON.png","Scene40_SEM.png",240,80,4,177,"101021",1
1153.8999999761581,118.784,415.744,true,2861.6999999284744,425651.89999997616,426306.2999999523,427460.1999999285,"Scene13_CON.png","Scene13_SEM.png",240,80,2,180,"101021",1
427.89999997615814,325.632,579.584,true,1868.8000000715256,431363.6999999285,432013.6999999285,432441.59999990463,"Scene23_CON.png","Scene23_SEM.png",240,80,2,183,"101021",1
440.40000009536743,923.648,290.816,true,2397.3000000715256,436082.6999999285,437063.59999990463,437504,"Scene25_CON.png","Scene25_SEM.png",240,80,3,186,"101021",1
506.89999997615814,194.56,526.336,true,2493,441651.5,442626.89999997616,443133.7999999523,"Scene29_CON.png","Scene29_SEM.png",240,80,3,189,"101021",1
695.7000000476837,536.576,366.592,true,1789.4000000953674,446809.09999990463,447135.1999999285,447830.89999997616,"Scene3_CON.png","Scene3_SEM.png",240,80,1,192,"101021",1
1413,921.6,256,true,2915,279556,279880,281293,"example_a.jpg","example_b.jpg",240,80,1,5,"100318",2
770.0000000000582,231.424,581.632,true,2065,290669,290993,291763.00000000006,"Scene53_CON.png","Scene53_SEM.png",240,80,1,9,"100318",2
471,552.96,473.088,true,2104,295741,296387,296858,"Scene6_CON.png","Scene6_SEM.png",240,80,2,12,"100318",2
3405,364.544,356.352,true,5232,300618,301585,304990,"Scene14_CON.png","Scene14_SEM.png",240,80,3,15,"100318",2
629,632.832,352.256,true,2166,308556,309201,309830,"Scene8_CON.png","Scene8_SEM.png",240,80,2,18,"100318",2
2465,190.464,512,true,4694,313436,315047,317512,"Scene37_CON.png","Scene37_SEM.png",240,80,5,21,"100318",2
674.0000000000582,135.168,671.744,true,1595,320998,321327,322001.00000000006,"Scene62_CON.png","Scene62_SEM.png",240,80,1,24,"100318",2
1374,622.592,303.104,true,3598.999999999942,325388.00000000006,326677,328051,"Scene36_CON.png","Scene36_SEM.png",240,80,4,27,"100318",2
1135,544.768,505.856,true,3699,331673,333284,334419,"Scene48_CON.png","Scene48_SEM.png",240,80,5,30,"100318",2
829,200.704,313.344,true,2739,337991,339281,340110,"Scene32_CON.png","Scene32_SEM.png",240,80,4,33,"100318",2
508,131.072,169.984,true,2480,343394,344684,345192,"Scene30_CON.png","Scene30_SEM.png",240,80,4,36,"100318",2
829,837.632,583.68,true,1932,348597,348920,349749,"Scene61_CON.png","Scene61_SEM.png",240,80,1,39,"100318",2
2002,358.4,536.576,true,3678,353261,354228,356230,"Scene20_CON.png","Scene20_SEM.png",240,80,3,42,"100318",2
645,362.496,622.592,true,1889,359646,360290,360935,"Scene11_CON.png","Scene11_SEM.png",240,80,2,45,"100318",2
1145,686.08,520.192,true,3291,364276,365565,366710,"Scene33_CON.png","Scene33_SEM.png",240,80,4,48,"100318",2
540,686.08,473.088,true,1519,370252,370576,371116,"Scene55_CON.png","Scene55_SEM.png",240,80,1,51,"100318",2
599,290.816,659.456,true,2954,374471,376083,376682,"Scene41_CON.png","Scene41_SEM.png",240,80,5,54,"100318",2
1078,796.672,327.68,true,3413.000000000058,380600,382211,383289,"Scene47_CON.png","Scene47_SEM.png",240,80,5,57,"100318",2
667,313.344,428.032,true,2061,386607,387575,388242,"Scene18_CON.png","Scene18_SEM.png",240,80,3,60,"100318",2
1921.9999999999418,600.064,235.52,true,4041,391295,392585.00000000006,394507,"Scene31_CON.png","Scene31_SEM.png",240,80,4,63,"100318",2
941,323.584,604.16,true,3149,397986,399598,400539,"Scene39_CON.png","Scene39_SEM.png",240,80,5,66,"100318",2
778,475.136,75.776,true,2227,403737,404382,405160,"Scene4_CON.png","Scene4_SEM.png",240,80,2,69,"100318",2
428,317.44,393.216,true,2507.999999999942,408662.00000000006,409952,410380,"Scene28_CON.png","Scene28_SEM.png",240,80,4,72,"100318",2
407,811.008,79.872,true,1674,413718,414363,414770,"Scene9_CON.png","Scene9_SEM.png",240,80,2,75,"100318",2
1816.9999999999418,499.712,507.904,true,3844,418485,419775.00000000006,421592,"Scene27_CON.png","Scene27_SEM.png",240,80,4,78,"100318",2
3209,163.84,380.928,true,4716,424973,425939,429148,"Scene13_CON.png","Scene13_SEM.png",240,80,3,81,"100318",2
563.0000000000582,954.368,290.816,true,2512,432339,433628,434191.00000000006,"Scene25_CON.png","Scene25_SEM.png",240,80,4,84,"100318",2
728,759.808,495.616,true,1848.9999999999418,437573.00000000006,437896,438624,"Scene57_CON.png","Scene57_SEM.png",240,80,1,87,"100318",2
364,518.144,372.736,true,1705,442057,442701,443065,"Scene3_CON.png","Scene3_SEM.png",240,80,2,90,"100318",2
1214,342.016,636.928,true,2135,446418,446742,447956,"Scene52_CON.png","Scene52_SEM.png",240,80,1,93,"100318",2
500,200.704,538.624,true,1394.9999999999418,451703.00000000006,452027,452527,"Scene50_CON.png","Scene50_SEM.png",240,80,1,96,"100318",2
396,641.024,602.112,true,2181,455693,456661,457057,"Scene19_CON.png","Scene19_SEM.png",240,80,3,99,"100318",2
597.9999999999418,925.696,253.952,true,2894,460491,461780.00000000006,462378,"Scene26_CON.png","Scene26_SEM.png",240,80,4,102,"100318",2
1504.9999999999418,673.792,305.152,true,3351,466075,467042.00000000006,468547,"Scene15_CON.png","Scene15_SEM.png",240,80,3,105,"100318",2
1137.9999999999418,432.128,536.576,true,2773,472118,473090.00000000006,474228,"Scene16_CON.png","Scene16_SEM.png",240,80,3,108,"100318",2
608,223.232,483.328,true,2873,477444,479056,479664,"Scene40_CON.png","Scene40_SEM.png",240,80,5,111,"100318",2
694.0000000000582,434.176,593.92,true,2698,484183,485795,486489.00000000006,"Scene43_CON.png","Scene43_SEM.png",240,80,5,114,"100318",2
434.9999999999418,419.84,530.432,true,1463,490137,490460.00000000006,490895,"Scene58_CON.png","Scene58_SEM.png",240,80,1,117,"100318",2
461,585.728,440.32,true,2197,494163,495131,495592,"Scene22_CON.png","Scene22_SEM.png",240,80,3,120,"100318",2
624.0000000000582,806.912,499.712,true,1689,499607,499930,500554.00000000006,"Scene59_CON.png","Scene59_SEM.png",240,80,1,123,"100318",2
475.9999999999418,958.464,491.52,true,1916,503897,504542.00000000006,505018,"Scene2_CON.png","Scene2_SEM.png",240,80,2,126,"100318",2
477,313.344,483.328,true,1336,508394,508718,509195,"Scene56_CON.png","Scene56_SEM.png",240,80,1,129,"100318",2
1180.9999999998836,837.632,428.032,true,2609,512292.00000000006,512936.00000000006,514116.99999999994,"Scene7_CON.png","Scene7_SEM.png",240,80,2,132,"100318",2
473.0000000001164,210.944,430.08,true,2382.000000000058,517525,518813.99999999994,519287.00000000006,"Scene29_CON.png","Scene29_SEM.png",240,80,4,135,"100318",2
1127.0000000000582,325.632,481.28,true,3653,522548,524159.99999999994,525287,"Scene49_CON.png","Scene49_SEM.png",240,80,5,138,"100318",2
968.0000000001164,759.808,550.912,true,3150,528826,530116,531084.0000000001,"Scene34_CON.png","Scene34_SEM.png",240,80,4,141,"100318",2
3462,829.44,354.304,true,4779,534572,535217,538679,"Scene1_CON.png","Scene1_SEM.png",240,80,2,144,"100318",2
785,296.96,626.688,true,1690.0000000001164,541961,542285,543070,"Scene60_CON.png","Scene60_SEM.png",240,80,1,147,"100318",2
530,24.576,399.36,true,2624,546278,547567,548097,"Scene35_CON.png","Scene35_SEM.png",240,80,4,150,"100318",2
646.9999999998836,544.768,352.256,true,1718.0000000001164,551510,551834.0000000001,552481,"Scene51_CON.png","Scene51_SEM.png",240,80,1,153,"100318",2
809,428.032,571.392,true,2612,555830,556798,557607,"Scene24_CON.png","Scene24_SEM.png",240,80,3,156,"100318",2
496,305.152,585.728,true,2611,561077,562690,563186,"Scene45_CON.png","Scene45_SEM.png",240,80,5,159,"100318",2
1000,669.696,378.88,true,3211,566275,567885,568885,"Scene46_CON.png","Scene46_SEM.png",240,80,5,162,"100318",2
1201,550.912,276.48,true,2111,572129,572452,573653,"Scene54_CON.png","Scene54_SEM.png",240,80,1,165,"100318",2
456.9999999998836,233.472,626.688,true,1936,576891,577858.0000000001,578315,"Scene23_CON.png","Scene23_SEM.png",240,80,3,168,"100318",2
388,538.624,487.424,true,1586,581726,582375,582763,"Scene12_CON.png","Scene12_SEM.png",240,80,2,171,"100318",2
645,743.424,468.992,true,2140.9999999998836,585954.0000000001,586922,587567,"Scene17_CON.png","Scene17_SEM.png",240,80,3,174,"100318",2
2081,825.344,589.824,true,3795,591150,592117,594198,"Scene21_CON.png","Scene21_SEM.png",240,80,3,177,"100318",2
437,841.728,579.584,true,2593,598085,599697,600134,"Scene38_CON.png","Scene38_SEM.png",240,80,5,180,"100318",2
593,182.272,430.08,true,1765,603375,604020,604613,"Scene5_CON.png","Scene5_SEM.png",240,80,2,183,"100318",2
395.9999999998836,673.792,362.496,true,2569,607697,609310.0000000001,609706,"Scene44_CON.png","Scene44_SEM.png",240,80,5,186,"100318",2
1809.0000000001164,350.208,251.904,true,2988.0000000001164,612846,613491,615300.0000000001,"Scene10_CON.png","Scene10_SEM.png",240,80,2,189,"100318",2
392,702.464,509.952,false,5979,618461,620071,620463,"Scene42_CON.png","Scene42_SEM.png",240,80,5,192,"100318",2
2370.2999999970198,921.6,237.568,true,4035.5,171845.70000000298,172170.5,174540.79999999702,"example_a.jpg","example_b.jpg",240,80,1,5,"100250",1
1751.300000011921,892.928,243.712,true,3712.7999999970198,185244,186228.39999999106,187979.70000000298,"Scene26_CON.png","Scene26_SEM.png",240,80,3,9,"100250",1
1246.7999999970198,690.176,448.512,true,2704.8999999910593,194301.5,194948.5,196195.29999999702,"Scene17_CON.png","Scene17_SEM.png",240,80,2,12,"100250",1
2447.6000000089407,243.712,536.576,true,4755.9000000059605,199717.29999999702,201350.59999999404,203798.20000000298,"Scene53_CON.png","Scene53_SEM.png",240,80,5,15,"100250",1
938,362.496,643.072,true,3210.9000000059605,207654.29999999702,208956.79999999702,209894.79999999702,"Scene41_CON.png","Scene41_SEM.png",240,80,4,18,"100250",1
3204.4000000059605,464.896,51.2,true,4835.20000000298,213856.39999999106,214180.79999999702,217385.20000000298,"Scene4_CON.png","Scene4_SEM.png",240,80,1,21,"100250",1
988.7999999970198,690.176,514.048,true,3210.5999999940395,222363.70000000298,223338,224326.79999999702,"Scene33_CON.png","Scene33_SEM.png",240,80,3,24,"100250",1
1099.2999999970198,786.432,395.264,true,3286.800000011921,228805.89999999106,230106,231205.29999999702,"Scene47_CON.png","Scene47_SEM.png",240,80,4,27,"100250",1
5148.9000000059605,370.688,339.968,true,48798.5,235659.59999999404,236308.09999999404,241457,"Scene14_CON.png","Scene14_SEM.png",240,80,2,30,"100250",1
1456.9000000059605,323.584,665.6,true,3770.3999999910593,337334,338950.89999999106,340407.799999997,"Scene52_CON.png","Scene52_SEM.png",240,80,5,33,"100250",1
1611.6000000089407,802.816,372.736,true,2814.0999999940395,344055.700000003,344383.39999999106,345995,"Scene1_CON.png","Scene1_SEM.png",240,80,1,36,"100250",1
1918.6000000089407,405.504,589.824,true,2949.5,349638.299999997,349966.89999999106,351885.5,"Scene11_CON.png","Scene11_SEM.png",240,80,1,39,"100250",1
605.2000000029802,817.152,333.824,false,2063.7000000029802,355707.59999999404,356353.59999999404,356958.799999997,"Scene23_CON.png","Scene23_SEM.png",240,80,2,42,"100250",1
1515.5,106.496,266.24,true,3439.2999999970198,361619.5,362596.799999997,364112.299999997,"Scene30_CON.png","Scene30_SEM.png",240,80,3,45,"100250",1
1313.7000000029802,638.976,481.28,true,3703.4000000059605,367849.799999997,369471.39999999106,370785.09999999404,"Scene55_CON.png","Scene55_SEM.png",240,80,5,48,"100250",1
1436,561.152,458.752,true,3272.4000000059605,374256.39999999106,375553.700000003,376989.700000003,"Scene48_CON.png","Scene48_SEM.png",240,80,4,51,"100250",1
659.2000000029802,210.944,499.712,true,2418.699999988079,381062.200000003,382031.299999997,382690.5,"Scene29_CON.png","Scene29_SEM.png",240,80,3,54,"100250",1
589,174.08,542.72,true,2580.4000000059605,386453.89999999106,387757.5,388346.5,"Scene37_CON.png","Scene37_SEM.png",240,80,4,57,"100250",1
1004,753.664,497.664,true,3686.3999999910593,391899.5,393530,394534,"Scene59_CON.png","Scene59_SEM.png",240,80,5,60,"100250",1
2892.2000000029802,811.008,569.344,true,4536.5,400799.39999999106,401452,404344.200000003,"Scene21_CON.png","Scene21_SEM.png",240,80,2,63,"100250",1
596.0999999940395,604.16,471.04,true,1839,411430.299999997,412079.299999997,412675.39999999106,"Scene22_CON.png","Scene22_SEM.png",240,80,2,66,"100250",1
1065.800000011921,227.328,522.24,true,3528.5,416116.09999999404,417414.89999999106,418480.700000003,"Scene40_CON.png","Scene40_SEM.png",240,80,4,69,"100250",1
606.5,174.08,671.744,true,3082.8999999910593,422459.700000003,424079.299999997,424685.799999997,"Scene62_CON.png","Scene62_SEM.png",240,80,5,72,"100250",1
515,460.8,421.888,true,1984.5999999940395,429196.700000003,430175.299999997,430690.299999997,"Scene28_CON.png","Scene28_SEM.png",240,80,3,75,"100250",1
700.2000000029802,335.872,679.936,true,3074.7000000029802,433873.09999999404,435502.5,436202.700000003,"Scene60_CON.png","Scene60_SEM.png",240,80,5,78,"100250",1
2418.7000000029802,815.104,88.064,true,3706.5,439909.200000003,440233.5,442652.200000003,"Scene9_CON.png","Scene9_SEM.png",240,80,1,81,"100250",1
3054.6000000089407,595.968,456.704,true,4942.699999988079,446655.200000003,447953.59999999404,451008.200000003,"Scene44_CON.png","Scene44_SEM.png",240,80,4,84,"100250",1
778.5999999940395,540.672,380.928,true,1729.3999999910593,454241,454570,455348.59999999404,"Scene3_CON.png","Scene3_SEM.png",240,80,1,87,"100250",1
523,548.864,329.728,true,2589.2999999970198,458683.59999999404,459983.39999999106,460506.39999999106,"Scene42_CON.png","Scene42_SEM.png",240,80,4,90,"100250",1
615.2000000029802,528.384,417.792,true,1362.7000000029802,464221.09999999404,464544.299999997,465159.5,"Scene8_CON.png","Scene8_SEM.png",240,80,1,93,"100250",1
3380.7000000029802,610.304,317.44,true,5352.29999999702,468134.299999997,469106.89999999106,472487.59999999404,"Scene36_CON.png","Scene36_SEM.png",240,80,3,96,"100250",1
1688.4000000059605,876.544,493.568,true,2768.8999999910593,476534.5,476861.59999999404,478550,"Scene2_CON.png","Scene2_SEM.png",240,80,1,99,"100250",1
1636.2999999970198,741.376,466.944,true,3981.800000011921,482109.39999999106,483732.700000003,485369,"Scene57_CON.png","Scene57_SEM.png",240,80,5,102,"100250",1
775.7999999970198,333.824,567.296,true,2401.4000000059605,488768.799999997,489414.700000003,490190.5,"Scene24_CON.png","Scene24_SEM.png",240,80,2,105,"100250",1
1405.9000000059605,702.464,278.528,true,2901.6000000089407,494061.59999999404,494708.89999999106,496114.799999997,"Scene15_CON.png","Scene15_SEM.png",240,80,2,108,"100250",1
11339.09999999404,610.304,600.064,true,12821.10000000894,499912.89999999106,500564.200000003,511903.299999997,"Scene19_CON.png","Scene19_SEM.png",240,80,2,111,"100250",1
1192.2000000029802,194.56,387.072,true,2382,515489,515814.89999999106,517007.09999999404,"Scene5_CON.png","Scene5_SEM.png",240,80,1,114,"100250",1
1817.3999999910593,368.64,483.328,true,4088.2000000029802,520675.5,522298.700000003,524116.09999999404,"Scene56_CON.png","Scene56_SEM.png",240,80,5,117,"100250",1
716.7999999970198,366.592,522.24,true,2757.4000000059605,527533.099999994,528826,529542.799999997,"Scene49_CON.png","Scene49_SEM.png",240,80,4,120,"100250",1
1285.7999999970198,686.08,577.536,true,3134.7999999970198,533067.5,534042,535327.799999997,"Scene34_CON.png","Scene34_SEM.png",240,80,3,123,"100250",1
801.3999999910593,374.784,538.624,true,2085.8999999910593,538931,539578,540379.3999999911,"Scene20_CON.png","Scene20_SEM.png",240,80,2,126,"100250",1
996.5,325.632,419.84,true,2279,544111.299999997,544762,545758.5,"Scene18_CON.png","Scene18_SEM.png",240,80,2,129,"100250",1
557.3999999910593,258.048,550.912,true,2545.9000000059605,548949.799999997,550252.200000003,550809.599999994,"Scene45_CON.png","Scene45_SEM.png",240,80,4,132,"100250",1
510.8999999910593,479.232,505.856,true,2165.2000000029802,554528.8999999911,555507,556017.8999999911,"Scene27_CON.png","Scene27_SEM.png",240,80,3,135,"100250",1
674,524.288,270.336,true,2957.7000000029802,559334.099999994,560954.3999999911,561628.3999999911,"Scene54_CON.png","Scene54_SEM.png",240,80,5,138,"100250",1
1399.4000000059605,133.12,456.704,true,3271.5999999940395,564917,565560.599999994,566960,"Scene13_CON.png","Scene13_SEM.png",240,80,2,141,"100250",1
556.5,555.008,458.752,true,1664.2999999970198,570955.5,571279.099999994,571835.599999994,"Scene6_CON.png","Scene6_SEM.png",240,80,1,144,"100250",1
310.5,309.248,301.056,true,1515.2999999970198,575233,575559.799999997,575870.299999997,"Scene10_CON.png","Scene10_SEM.png",240,80,1,147,"100250",1
11246.699999988079,579.584,256,true,13225.699999988079,582814.200000003,583796.700000003,595043.3999999911,"Scene31_CON.png","Scene31_SEM.png",240,80,3,150,"100250",1
507.6000000089407,286.72,573.44,true,2582.7999999970198,599046.5,600346.8999999911,600854.5,"Scene39_CON.png","Scene39_SEM.png",240,80,4,153,"100250",1
2149.9000000059605,819.2,602.112,true,4708.70000000298,604357.799999997,605983.299999997,608133.200000003,"Scene61_CON.png","Scene61_SEM.png",240,80,5,156,"100250",1
1249.2000000029802,772.096,378.88,true,3464.7999999970198,611798.599999994,613102.599999994,614351.799999997,"Scene46_CON.png","Scene46_SEM.png",240,80,4,159,"100250",1
839.9000000059605,528.384,528.384,true,1681.7999999970198,617888.799999997,618214.799999997,619054.700000003,"Scene12_CON.png","Scene12_SEM.png",240,80,1,162,"100250",1
406,432.128,638.976,true,2234.0999999940395,622224.299999997,623530,623936,"Scene43_CON.png","Scene43_SEM.png",240,80,4,165,"100250",1
1175.7000000029802,428.032,522.24,true,2606.2000000029802,627174,627822.099999994,628997.799999997,"Scene16_CON.png","Scene16_SEM.png",240,80,2,168,"100250",1
682.6999999880791,217.088,270.336,true,2323.2999999970198,632464.700000003,633444.700000003,634127.3999999911,"Scene32_CON.png","Scene32_SEM.png",240,80,3,171,"100250",1
1678.2000000029802,927.744,278.528,true,3528,637446.099999994,638424.8999999911,640103.099999994,"Scene25_CON.png","Scene25_SEM.png",240,80,3,174,"100250",1
723.2000000029802,489.472,462.848,true,2953.5,643670.099999994,645290,646013.200000003,"Scene58_CON.png","Scene58_SEM.png",240,80,5,177,"100250",1
861.2000000029802,40.96,387.072,true,2649.4000000059605,649590.099999994,650569.5,651430.700000003,"Scene35_CON.png","Scene35_SEM.png",240,80,3,180,"100250",1
423,829.44,602.112,true,2619.2000000029802,654880.8999999911,656180.299999997,656603.299999997,"Scene38_CON.png","Scene38_SEM.png",240,80,4,183,"100250",1
559.7000000029802,55.296,516.096,true,2796.8999999910593,660249.700000003,661876.799999997,662436.5,"Scene50_CON.png","Scene50_SEM.png",240,80,5,186,"100250",1
1805.7999999970198,899.072,403.456,true,2859.0999999940395,665782.200000003,666106.799999997,667912.599999994,"Scene7_CON.png","Scene7_SEM.png",240,80,1,189,"100250",1
2321,555.008,344.064,true,4573.0999999940395,671329,672956.799999997,675277.799999997,"Scene51_CON.png","Scene51_SEM.png",240,80,5,192,"100250",1
1944,917.504,243.712,true,3040.7000000029802,102376.89999999851,102701.60000000149,104645.60000000149,"example_a.jpg","example_b.jpg",240,80,1,5,"98774",1
1295.1000000014901,376.832,645.12,true,3462,111213.89999999851,112512.5,113807.60000000149,"Scene41_CON.png","Scene41_SEM.png",240,80,4,9,"98774",1
1351.8999999985099,491.52,509.952,true,3435.7000000029802,117753.69999999553,118741.29999999702,120093.19999999553,"Scene27_CON.png","Scene27_SEM.png",240,80,3,12,"98774",1
1423.5999999940395,231.424,567.296,true,3323.10000000149,123983.89999999851,124963.10000000149,126386.69999999553,"Scene29_CON.png","Scene29_SEM.png",240,80,3,15,"98774",1
1109,374.784,542.72,true,2477.7999999970198,130074.60000000149,130723.10000000149,131832.1000000015,"Scene20_CON.png","Scene20_SEM.png",240,80,2,18,"98774",1
935.7999999970198,497.664,63.488,true,2041.8999999985099,135258.6000000015,135587.1000000015,136522.8999999985,"Scene4_CON.png","Scene4_SEM.png",240,80,1,21,"98774",1
848.2000000029802,172.032,692.224,true,3583.39999999851,140218.3999999985,141841.69999999553,142689.8999999985,"Scene62_CON.png","Scene62_SEM.png",240,80,5,24,"98774",1
563.9000000059605,567.296,491.52,true,1675.7000000029802,146860.79999999702,147187.19999999553,147751.1000000015,"Scene6_CON.png","Scene6_SEM.png",240,80,1,27,"98774",1
1507.6000000014901,800.768,364.544,true,2593.60000000149,151197,151522.79999999702,153030.3999999985,"Scene1_CON.png","Scene1_SEM.png",240,80,1,30,"98774",1
1780.4000000059605,145.408,413.696,true,2826.7000000029802,156554.79999999702,156883.19999999553,158663.6000000015,"Scene5_CON.png","Scene5_SEM.png",240,80,1,33,"98774",1
1638.2000000029802,331.776,421.888,true,3325.60000000149,162008.8999999985,162995.29999999702,164633.5,"Scene28_CON.png","Scene28_SEM.png",240,80,3,36,"98774",1
501.29999999701977,948.224,307.2,true,2222.7999999970198,167904,168888.5,169389.79999999702,"Scene25_CON.png","Scene25_SEM.png",240,80,3,39,"98774",1
492.70000000298023,350.208,632.832,true,2763.2999999970198,172899.6000000015,174520.8999999985,175013.6000000015,"Scene52_CON.png","Scene52_SEM.png",240,80,5,42,"98774",1
643.2000000029802,301.056,309.248,true,1635.3999999985099,178370.1000000015,178694.69999999553,179337.8999999985,"Scene10_CON.png","Scene10_SEM.png",240,80,1,45,"98774",1
469.5,894.976,581.632,true,2444,182736.29999999702,184041.5,184511,"Scene38_CON.png","Scene38_SEM.png",240,80,4,48,"98774",1
811.3000000044703,638.976,522.24,false,4506.89999999851,187908.1000000015,188234.69999999553,189046,"Scene2_CON.png","Scene2_SEM.png",240,80,1,51,"98774",1
574,305.152,505.856,true,2660.6999999955297,195309,196937.29999999702,197511.29999999702,"Scene56_CON.png","Scene56_SEM.png",240,80,5,54,"98774",1
1581.2999999970198,825.344,538.624,true,4043.8000000044703,200565.19999999553,202186.6000000015,203767.8999999985,"Scene59_CON.png","Scene59_SEM.png",240,80,5,57,"98774",1
4696.4000000059605,559.104,360.448,true,7095.39999999851,207245.6000000015,208867.19999999553,213563.6000000015,"Scene51_CON.png","Scene51_SEM.png",240,80,5,60,"98774",1
504,573.44,282.624,true,1950.6999999955297,217226.6000000015,218200.5,218704.5,"Scene31_CON.png","Scene31_SEM.png",240,80,3,63,"98774",1
1407.1000000014901,727.04,581.632,true,3289.2000000029802,221815.29999999702,222792.5,224199.6000000015,"Scene34_CON.png","Scene34_SEM.png",240,80,3,66,"98774",1
6087.39999999851,331.776,608.256,true,7239.19999999553,227824.1000000015,228472,234559.3999999985,"Scene23_CON.png","Scene23_SEM.png",240,80,2,69,"98774",1
819,837.632,94.208,true,1753.2999999970198,237619,237947,238766,"Scene9_CON.png","Scene9_SEM.png",240,80,1,72,"98774",1
2797.7999999970198,602.112,323.584,true,4404.20000000298,242559.69999999553,243540.3999999985,246338.19999999553,"Scene36_CON.png","Scene36_SEM.png",240,80,3,75,"98774",1
1761.5,247.808,550.912,true,3845.7999999970198,249701.1000000015,251327.8999999985,253089.3999999985,"Scene53_CON.png","Scene53_SEM.png",240,80,5,78,"98774",1
1384.8000000044703,835.584,401.408,true,2292.7000000029802,256102.69999999553,256429.79999999702,257814.6000000015,"Scene7_CON.png","Scene7_SEM.png",240,80,1,81,"98774",1
2228.89999999851,550.912,262.144,true,4392.30000000447,261034.29999999702,262669.8999999985,264898.799999997,"Scene54_CON.png","Scene54_SEM.png",240,80,5,84,"98774",1
621.2999999970198,337.92,626.688,true,2433.2999999970198,267989.1000000015,269293.8999999985,269915.19999999553,"Scene39_CON.png","Scene39_SEM.png",240,80,4,87,"98774",1
7570.5,622.592,600.064,true,9048.19999999553,273060.6000000015,273711.1000000015,281281.6000000015,"Scene19_CON.png","Scene19_SEM.png",240,80,2,90,"98774",1
1133.2000000029802,120.832,493.568,true,3270,284869.5,286490.299999997,287623.5,"Scene50_CON.png","Scene50_SEM.png",240,80,5,93,"98774",1
1297,335.872,540.672,true,3203.89999999851,290707.8999999985,292018.799999997,293315.799999997,"Scene49_CON.png","Scene49_SEM.png",240,80,4,96,"98774",1
698.1000000014901,194.56,276.48,true,2259.7000000029802,296444.8999999985,297423.8999999985,298122,"Scene32_CON.png","Scene32_SEM.png",240,80,3,99,"98774",1
925.5,423.936,516.096,true,2505.5,301341,301991.5,302917,"Scene16_CON.png","Scene16_SEM.png",240,80,2,102,"98774",1
1912.5999999940395,786.432,573.44,true,3280.3000000044703,306447.19999999553,307099.1000000015,309011.69999999553,"Scene21_CON.png","Scene21_SEM.png",240,80,2,105,"98774",1
616,655.36,440.32,true,2380.6999999955297,312319.6000000015,313619.19999999553,314235.19999999553,"Scene44_CON.png","Scene44_SEM.png",240,80,4,108,"98774",1
576.5,684.032,288.768,true,2077.4000000059605,317225.69999999553,317885.8999999985,318462.3999999985,"Scene15_CON.png","Scene15_SEM.png",240,80,2,111,"98774",1
533.7999999970198,714.752,462.848,true,1761.3999999985099,321906.799999997,322560.1000000015,323093.8999999985,"Scene17_CON.png","Scene17_SEM.png",240,80,2,114,"98774",1
522,561.152,540.672,true,1460.6000000014901,326212.3999999985,326537.69999999553,327059.69999999553,"Scene12_CON.png","Scene12_SEM.png",240,80,1,117,"98774",1
1861.0999999940395,751.616,477.184,true,4279.19999999553,330357,331987.1000000015,333848.19999999553,"Scene57_CON.png","Scene57_SEM.png",240,80,5,120,"98774",1
786.2999999970198,626.688,491.52,true,3010.89999999851,337261.8999999985,338875.8999999985,339662.19999999553,"Scene55_CON.png","Scene55_SEM.png",240,80,5,123,"98774",1
1508.6999999955297,714.752,524.288,true,3065.10000000149,342921.799999997,343889.6000000015,345398.299999997,"Scene33_CON.png","Scene33_SEM.png",240,80,3,126,"98774",1
2446.8000000044703,356.352,389.12,true,3582,348559.799999997,349211.19999999553,351658,"Scene14_CON.png","Scene14_SEM.png",240,80,2,129,"98774",1
958.3000000044703,499.712,477.184,true,3559.89999999851,354655.6000000015,356285.69999999553,357244,"Scene58_CON.png","Scene58_SEM.png",240,80,5,132,"98774",1
554.6000000014901,192.512,516.096,true,2371.10000000149,360799.69999999553,362096.3999999985,362651,"Scene37_CON.png","Scene37_SEM.png",240,80,4,135,"98774",1
1220.7000000029802,389.12,591.872,true,2301.60000000149,365826.69999999553,366475.3999999985,367696.1000000015,"Scene24_CON.png","Scene24_SEM.png",240,80,2,138,"98774",1
932.6000000014901,120.832,417.792,true,2253.39999999851,370656,371312.299999997,372244.8999999985,"Scene13_CON.png","Scene13_SEM.png",240,80,2,141,"98774",1
502.3999999985099,778.24,380.928,true,2369,375546,376840.6000000015,377343,"Scene47_CON.png","Scene47_SEM.png",240,80,4,144,"98774",1
698.6000000014901,210.944,524.288,true,2754,380504.799999997,381807.299999997,382505.8999999985,"Scene40_CON.png","Scene40_SEM.png",240,80,4,147,"98774",1
706.2999999970198,901.12,282.624,true,2515.89999999851,385828.799999997,386799.3999999985,387505.69999999553,"Scene26_CON.png","Scene26_SEM.png",240,80,3,150,"98774",1
990.1000000014901,303.104,409.6,true,2304.39999999851,391103.299999997,391759.8999999985,392750,"Scene18_CON.png","Scene18_SEM.png",240,80,2,153,"98774",1
1409.2999999970198,86.016,217.088,true,2934.5,395895.5,396871.3999999985,398280.69999999553,"Scene30_CON.png","Scene30_SEM.png",240,80,3,156,"98774",1
2158,634.88,471.04,true,3378.2000000029802,401559.19999999553,402209.8999999985,404367.8999999985,"Scene22_CON.png","Scene22_SEM.png",240,80,2,159,"98774",1
764.1000000014901,438.272,598.016,true,2696.10000000149,407552.8999999985,408848.19999999553,409612.299999997,"Scene43_CON.png","Scene43_SEM.png",240,80,4,162,"98774",1
914.3999999985099,382.976,620.544,true,1748.2000000029802,413124.799999997,413450.799999997,414365.19999999553,"Scene11_CON.png","Scene11_SEM.png",240,80,1,165,"98774",1
557.4000000059605,565.248,323.584,true,2477.7999999970198,417568.3999999985,418867.19999999553,419424.6000000015,"Scene42_CON.png","Scene42_SEM.png",240,80,4,168,"98774",1
790.6000000014901,428.032,679.936,true,3202.2000000029802,422661.3999999985,424293.19999999553,425083.799999997,"Scene60_CON.png","Scene60_SEM.png",240,80,5,171,"98774",1
535.1000000014901,741.376,387.072,true,2389.89999999851,428558.8999999985,429860.799999997,430395.8999999985,"Scene46_CON.png","Scene46_SEM.png",240,80,4,174,"98774",1
839.3999999985099,606.208,393.216,true,1909.2000000029802,433496.19999999553,433823.8999999985,434663.299999997,"Scene8_CON.png","Scene8_SEM.png",240,80,1,177,"98774",1
481.5,534.528,505.856,true,2502,437940.8999999985,439248.5,439730,"Scene48_CON.png","Scene48_SEM.png",240,80,4,180,"98774",1
1848.0999999940395,784.384,608.256,true,4223.39999999851,442970.299999997,444586.6000000015,446434.69999999553,"Scene61_CON.png","Scene61_SEM.png",240,80,5,183,"98774",1
521.6000000014901,30.72,376.832,true,2310.6999999955297,449877.1000000015,450847.69999999553,451369.299999997,"Scene35_CON.png","Scene35_SEM.png",240,80,3,186,"98774",1
575.7000000029802,243.712,593.92,true,2289.1999999955297,454815.1000000015,456113.8999999985,456689.6000000015,"Scene45_CON.png","Scene45_SEM.png",240,80,4,189,"98774",1
508.30000000447035,499.712,356.352,true,1378.6000000014901,459675.799999997,459999.69999999553,460508,"Scene3_CON.png","Scene3_SEM.png",240,80,1,192,"98774",1
1996.2000000001863,929.792,247.808,true,4435.5999999996275,213285.30000000028,213609.3999999999,215605.6000000001,"example_a.jpg","example_b.jpg",240,80,1,5,"101114",2
3988.5,126.976,688.128,true,5543.699999999721,222229.7000000002,222553.2000000002,226541.7000000002,"Scene62_CON.png","Scene62_SEM.png",240,80,1,9,"101114",2
3805.399999999907,430.08,677.888,true,6711.100000000093,230904.7000000002,232531.5,236336.8999999999,"Scene41_CON.png","Scene41_SEM.png",240,80,5,12,"101114",2
1251.7999999998137,219.136,503.808,true,3903.7000000001863,240596.6000000001,242220.6000000001,243472.3999999999,"Scene40_CON.png","Scene40_SEM.png",240,80,5,15,"101114",2
2878.7999999998137,118.784,442.368,false,5560.600000000093,247336.1000000001,248960.30000000028,251839.1000000001,"Scene37_CON.png","Scene37_SEM.png",240,80,5,18,"101114",2
6675.699999999721,899.072,520.192,true,8365.799999999814,256142.2000000002,256791.30000000028,263467,"Scene2_CON.png","Scene2_SEM.png",240,80,2,21,"101114",2
2785.2999999998137,542.72,350.208,true,3992.600000000093,267552.1000000001,267878.8000000003,270664.1000000001,"Scene51_CON.png","Scene51_SEM.png",240,80,1,24,"101114",2
3309.399999999907,219.136,292.864,true,5571.700000000186,274400,275698.1000000001,279007.5,"Scene32_CON.png","Scene32_SEM.png",240,80,4,27,"101114",2
1173.5,587.776,464.896,true,3563.2000000001863,283971.3999999999,284945.5,286119,"Scene22_CON.png","Scene22_SEM.png",240,80,3,30,"101114",2
7618.799999999814,661.504,448.512,true,10145,290200.1000000001,291830.2000000002,299449,"Scene44_CON.png","Scene44_SEM.png",240,80,5,33,"101114",2
1672.1999999997206,110.592,253.952,true,4094.3000000002794,303023.3999999999,304325.8000000003,305998,"Scene30_CON.png","Scene30_SEM.png",240,80,4,36,"101114",2
920.5,147.456,421.888,true,2544.100000000093,310081.8999999999,310731.2000000002,311651.7000000002,"Scene5_CON.png","Scene5_SEM.png",240,80,2,39,"101114",2
3179.2000000001863,864.256,71.68,true,4657.899999999907,315415.2000000002,316066,319245.2000000002,"Scene9_CON.png","Scene9_SEM.png",240,80,2,42,"101114",2
502,561.152,253.952,true,2559.2999999998137,323201.6000000001,324500.3000000003,325002.3000000003,"Scene31_CON.png","Scene31_SEM.png",240,80,4,45,"101114",2
462.20000000018626,266.24,634.88,true,2959.6999999997206,328571.7000000002,330201.1000000001,330663.3000000003,"Scene39_CON.png","Scene39_SEM.png",240,80,5,48,"101114",2
1725.8000000002794,184.32,518.144,true,3956.7000000001863,334689.5,335987.3999999999,337713.2000000002,"Scene29_CON.png","Scene29_SEM.png",240,80,4,51,"101114",2
595,509.952,432.128,true,2311.100000000093,342172.2000000002,342827,343422,"Scene8_CON.png","Scene8_SEM.png",240,80,2,54,"101114",2
1808.4000000003725,428.032,647.168,true,3320.1999999997206,347060.3000000003,347383.8999999999,349192.3000000003,"Scene60_CON.png","Scene60_SEM.png",240,80,1,57,"101114",2
7438.5999999996275,503.808,507.904,true,9911.69999999972,353363.3000000003,354663.3000000003,362101.8999999999,"Scene27_CON.png","Scene27_SEM.png",240,80,4,60,"101114",2
5584.399999999907,378.88,544.768,true,7518.399999999907,366001.8000000003,366975.5,372559.8999999999,"Scene20_CON.png","Scene20_SEM.png",240,80,3,63,"101114",2
2531.4000000003725,120.832,430.08,true,4382.700000000186,376235.5,377209.8999999999,379741.3000000003,"Scene13_CON.png","Scene13_SEM.png",240,80,3,66,"101114",2
2520.4000000003725,421.888,624.64,true,4045.2000000001863,383445.3999999999,384093.8999999999,386614.3000000003,"Scene11_CON.png","Scene11_SEM.png",240,80,2,69,"101114",2
770.9000000003725,47.104,366.592,true,3081.8000000002794,390434.8999999999,391733.8999999999,392504.8000000003,"Scene35_CON.png","Scene35_SEM.png",240,80,4,72,"101114",2
1858.3999999999069,700.416,522.24,true,4532.300000000279,396445.3999999999,397748.1000000001,399606.5,"Scene33_CON.png","Scene33_SEM.png",240,80,4,75,"101114",2
661.2000000001863,559.104,366.592,true,2232.2999999998137,404082.6000000001,404731.3999999999,405392.6000000001,"Scene3_CON.png","Scene3_SEM.png",240,80,2,78,"101114",2
2531.899999999907,339.968,536.576,true,4935.4000000003725,408993.3999999999,410617.6000000001,413149.5,"Scene49_CON.png","Scene49_SEM.png",240,80,5,81,"101114",2
847.5,397.312,573.44,true,2545.2000000001863,417058.1000000001,418030.6000000001,418878.1000000001,"Scene24_CON.png","Scene24_SEM.png",240,80,3,84,"101114",2
824.2999999998137,761.856,473.088,true,2562.600000000093,422780.2000000002,423104.1000000001,423928.3999999999,"Scene59_CON.png","Scene59_SEM.png",240,80,1,87,"101114",2
2768.2999999998137,724.992,571.392,true,5428.399999999907,428070.7000000002,429367.6000000001,432135.8999999999,"Scene34_CON.png","Scene34_SEM.png",240,80,4,90,"101114",2
848.3000000002794,204.8,587.776,true,3378.3000000002794,436409,438034.5,438882.8000000003,"Scene45_CON.png","Scene45_SEM.png",240,80,5,93,"101114",2
541.1000000000931,563.2,538.624,true,1921.4000000003725,442830.3999999999,443479.6000000001,444020.7000000002,"Scene12_CON.png","Scene12_SEM.png",240,80,2,96,"101114",2
665.8999999999069,886.784,299.008,true,3334.5,447515.3999999999,448814.5,449480.3999999999,"Scene25_CON.png","Scene25_SEM.png",240,80,4,99,"101114",2
3491.7000000001863,706.56,464.896,true,5445.899999999907,453674.5,454648.5,458140.2000000002,"Scene17_CON.png","Scene17_SEM.png",240,80,3,102,"101114",2
886.1000000000931,352.256,387.072,true,2054.600000000093,462107.7000000002,462432.8999999999,463319,"Scene56_CON.png","Scene56_SEM.png",240,80,1,105,"101114",2
764.9000000003725,309.248,313.344,true,2368.100000000093,466874.6000000001,467523.8999999999,468288.8000000003,"Scene10_CON.png","Scene10_SEM.png",240,80,2,108,"101114",2
406.40000000037253,536.576,477.184,true,1796.5,472041.6000000001,472690.3999999999,473096.8000000003,"Scene6_CON.png","Scene6_SEM.png",240,80,2,111,"101114",2
1112.9000000003725,794.624,411.648,true,2514.9000000003725,476482.1999999997,477131.1999999997,478244.1000000001,"Scene7_CON.png","Scene7_SEM.png",240,80,2,114,"101114",2
6048.200000000186,372.736,419.84,true,7784,481724.00000000047,482697.3999999999,488745.6000000001,"Scene18_CON.png","Scene18_SEM.png",240,80,3,117,"101114",2
2592.399999999441,69.632,516.096,true,5493.700000000186,492242.8000000003,492565.50000000047,495157.8999999999,"Scene50_CON.png","Scene50_SEM.png",240,80,1,120,"101114",2
1126.300000000745,360.448,649.216,true,2214,501077.8000000003,501401.1999999997,502527.50000000047,"Scene52_CON.png","Scene52_SEM.png",240,80,1,123,"101114",2
1046.0999999996275,309.248,610.304,true,2736.7999999998137,506164.6000000001,507142.6000000001,508188.6999999997,"Scene23_CON.png","Scene23_SEM.png",240,80,3,126,"101114",2
2087.800000000745,800.768,573.44,true,3537,511915.8000000003,512239.6999999997,514327.50000000047,"Scene61_CON.png","Scene61_SEM.png",240,80,1,129,"101114",2
512.4000000003725,460.8,499.712,true,1409.5,518330.50000000047,518654.1999999997,519166.6000000001,"Scene58_CON.png","Scene58_SEM.png",240,80,1,132,"101114",2
3285.7000000001863,526.336,260.096,true,4323.100000000559,522657.6999999997,522984.8999999999,526270.6000000001,"Scene54_CON.png","Scene54_SEM.png",240,80,1,135,"101114",2
2548.699999999255,790.528,354.304,true,4144.899999999441,529723.0000000005,530374.5000000005,532923.1999999997,"Scene1_CON.png","Scene1_SEM.png",240,80,2,138,"101114",2
1184.6000000005588,358.4,356.352,true,2965.2000000001863,536887.8000000003,537856.6999999997,539041.3000000003,"Scene14_CON.png","Scene14_SEM.png",240,80,3,141,"101114",2
9375.700000000186,706.56,303.104,true,11547.200000000186,542479.1999999997,543453.1000000001,552828.8000000003,"Scene15_CON.png","Scene15_SEM.png",240,80,3,144,"101114",2
1217.2000000001863,876.544,233.472,true,3855,556998.8000000003,558302.3000000003,559519.5000000005,"Scene26_CON.png","Scene26_SEM.png",240,80,4,147,"101114",2
2210.5,432.128,528.384,true,3944.899999999441,564304.5000000005,565277.3999999999,567487.8999999999,"Scene16_CON.png","Scene16_SEM.png",240,80,3,150,"101114",2
643.6000000005588,741.376,405.504,true,3465.2000000001863,571097.1000000001,572721.8999999999,573365.5000000005,"Scene46_CON.png","Scene46_SEM.png",240,80,5,153,"101114",2
1182.7999999998137,546.816,342.016,true,3949.7000000001863,577309.8000000003,578933.3000000003,580116.1000000001,"Scene42_CON.png","Scene42_SEM.png",240,80,5,156,"101114",2
740.2000000001863,356.352,602.112,true,3176.0999999996275,584024.6000000001,585649.6000000001,586389.8000000003,"Scene43_CON.png","Scene43_SEM.png",240,80,5,159,"101114",2
547.5,657.408,460.8,true,1700.8999999994412,590022.0000000005,590348.8999999999,590896.3999999999,"Scene55_CON.png","Scene55_SEM.png",240,80,1,162,"101114",2
1018.9000000003725,643.072,610.304,true,3426.899999999441,594433.8000000003,595409.6000000001,596428.5000000005,"Scene19_CON.png","Scene19_SEM.png",240,80,3,165,"101114",2
1897.2000000001863,294.912,442.368,true,3993.7000000001863,600704.6000000001,602002.3000000003,603899.5000000005,"Scene28_CON.png","Scene28_SEM.png",240,80,4,168,"101114",2
1858,802.816,569.344,true,3782.4000000003725,607303.3999999999,608277.3999999999,610135.3999999999,"Scene21_CON.png","Scene21_SEM.png",240,80,3,171,"101114",2
531.2000000001863,835.584,333.824,true,3054.7999999998137,613945.1000000001,615568.6000000001,616099.8000000003,"Scene47_CON.png","Scene47_SEM.png",240,80,5,174,"101114",2
797.1000000005588,221.184,569.344,true,2106.600000000559,619950.3999999999,620276.3999999999,621073.5000000005,"Scene53_CON.png","Scene53_SEM.png",240,80,1,177,"101114",2
4132.9000000003725,473.088,57.344,true,5743.5,624961.3000000003,625610.6000000001,629743.5000000005,"Scene4_CON.png","Scene4_SEM.png",240,80,2,180,"101114",2
7279.299999999814,585.728,438.272,false,10342.599999999627,633687.3000000003,635311.3000000003,642590.6000000001,"Scene48_CON.png","Scene48_SEM.png",240,80,5,183,"101114",2
1502.7999999998137,626.688,309.248,true,3619.4000000003725,646835.6000000001,648134.6000000001,649637.3999999999,"Scene36_CON.png","Scene36_SEM.png",240,80,4,186,"101114",2
697.5999999996275,854.016,561.152,true,3208.7999999998137,653279.0000000005,654903.1000000001,655600.6999999997,"Scene38_CON.png","Scene38_SEM.png",240,80,5,189,"101114",2
1240.1000000005588,743.424,468.992,true,2448.0999999996275,659284.1000000001,659607.8999999999,660848.0000000005,"Scene57_CON.png","Scene57_SEM.png",240,80,1,192,"101114",2
5541.199999999255,827.392,260.096,false,10372.39999999851,79286.19999999925,79614.89999999851,85156.09999999776,"example_a.jpg","example_b.jpg",240,80,1,5,"95164",2
1007.2000000029802,618.496,346.112,true,3686.60000000149,96883.89999999851,98180.09999999776,99187.30000000075,"Scene36_CON.png","Scene36_SEM.png",240,80,4,9,"95164",2
1825.8999999985099,204.8,544.768,true,2896.2999999970198,103387.80000000075,103712.19999999925,105538.09999999776,"Scene53_CON.png","Scene53_SEM.png",240,80,1,12,"95164",2
2470.39999999851,122.88,479.232,true,4315.699999999255,109123,110097.69999999925,112568.09999999776,"Scene13_CON.png","Scene13_SEM.png",240,80,3,15,"95164",2
2302.5,247.808,483.328,true,4788.800000000745,116153.5,117777.69999999925,120080.19999999925,"Scene37_CON.png","Scene37_SEM.png",240,80,5,18,"95164",2
2672.7000000029802,376.832,548.864,true,4540.5,127403.59999999776,128377.59999999776,131050.30000000075,"Scene20_CON.png","Scene20_SEM.png",240,80,3,21,"95164",2
2134.60000000149,333.824,413.696,true,3979.900000002235,136491.3999999985,137468.19999999925,139602.80000000075,"Scene18_CON.png","Scene18_SEM.png",240,80,3,24,"95164",2
1035.800000000745,251.904,532.48,true,3460.800000000745,143332.5,144956.59999999776,145992.3999999985,"Scene40_CON.png","Scene40_SEM.png",240,80,5,27,"95164",2
2860.300000000745,692.224,282.624,true,4909.5,149938.59999999776,150912.59999999776,153772.8999999985,"Scene15_CON.png","Scene15_SEM.png",240,80,3,30,"95164",2
1089.199999999255,235.52,585.728,true,3460.699999999255,157822,159445.8999999985,160535.09999999776,"Scene45_CON.png","Scene45_SEM.png",240,80,5,33,"95164",2
1190.9000000022352,546.816,522.24,true,3720.5,170296.69999999925,171920.3999999985,173111.30000000075,"Scene48_CON.png","Scene48_SEM.png",240,80,5,36,"95164",2
1765.699999999255,516.096,339.968,true,4035.39999999851,176821.19999999925,178445.69999999925,180211.3999999985,"Scene42_CON.png","Scene42_SEM.png",240,80,5,39,"95164",2
1825.800000000745,849.92,425.984,true,4742.29999999702,183764.30000000075,185382.59999999776,187208.3999999985,"Scene47_CON.png","Scene47_SEM.png",240,80,5,42,"95164",2
7661.39999999851,872.448,561.152,true,8767.800000000745,191438.09999999776,191762.19999999925,199423.59999999776,"Scene59_CON.png","Scene59_SEM.png",240,80,1,45,"95164",2
1217.6000000014901,346.112,638.976,true,3574.199999999255,203302.3999999985,204922.19999999925,206139.80000000075,"Scene39_CON.png","Scene39_SEM.png",240,80,5,48,"95164",2
811.5,501.76,540.672,true,3541.800000000745,209792.09999999776,211092.5,211904,"Scene27_CON.png","Scene27_SEM.png",240,80,4,51,"95164",2
807.4000000022352,307.2,407.552,true,2772.699999999255,216388.19999999925,217686.09999999776,218493.5,"Scene28_CON.png","Scene28_SEM.png",240,80,4,54,"95164",2
1785.800000000745,495.616,567.296,true,4035.39999999851,222100.30000000075,223724.3999999985,225510.19999999925,"Scene43_CON.png","Scene43_SEM.png",240,80,5,57,"95164",2
4645.800000000745,712.704,507.904,true,6972.5,229602.59999999776,230899.5,235545.30000000075,"Scene33_CON.png","Scene33_SEM.png",240,80,4,60,"95164",2
559,40.96,368.64,true,2720.300000000745,239445.69999999925,240744.8999999985,241303.8999999985,"Scene35_CON.png","Scene35_SEM.png",240,80,4,63,"95164",2
812.6999999992549,526.336,507.904,true,1796.699999999255,245285.3999999985,245609.30000000075,246422,"Scene58_CON.png","Scene58_SEM.png",240,80,1,66,"95164",2
1419.2000000029802,362.496,612.352,true,3496,250178.30000000075,251153.09999999776,252572.30000000075,"Scene23_CON.png","Scene23_SEM.png",240,80,3,69,"95164",2
3742.199999999255,288.768,657.408,true,5471.10000000149,256640.19999999925,256963.80000000075,260706,"Scene60_CON.png","Scene60_SEM.png",240,80,1,72,"95164",2
1616.5999999977648,876.544,546.816,true,3999.10000000149,265278.09999999776,266902,268518.59999999776,"Scene38_CON.png","Scene38_SEM.png",240,80,5,75,"95164",2
1129,233.472,665.6,true,2086.300000000745,272545.59999999776,272869.59999999776,273998.59999999776,"Scene62_CON.png","Scene62_SEM.png",240,80,1,78,"95164",2
1446.6000000014901,925.696,280.576,true,3592.699999999255,277575.30000000075,278877.69999999925,280324.30000000075,"Scene25_CON.png","Scene25_SEM.png",240,80,4,81,"95164",2
896,657.408,473.088,true,2526.89999999851,284074.5,285048.3999999985,285944.3999999985,"Scene17_CON.png","Scene17_SEM.png",240,80,3,84,"95164",2
668.1999999992549,583.68,448.512,true,1803.5999999977648,289443.80000000075,290092.19999999925,290760.3999999985,"Scene8_CON.png","Scene8_SEM.png",240,80,2,87,"95164",2
709.6000000014901,583.68,323.584,true,2549.300000000745,294030.19999999925,295329.19999999925,296038.80000000075,"Scene31_CON.png","Scene31_SEM.png",240,80,4,90,"95164",2
759,698.368,573.44,true,2787.2999999970198,299293.30000000075,300593.69999999925,301352.69999999925,"Scene34_CON.png","Scene34_SEM.png",240,80,4,93,"95164",2
835.3999999985099,331.776,374.784,true,1639.5,304839.69999999925,305162.69999999925,305998.09999999776,"Scene56_CON.png","Scene56_SEM.png",240,80,1,96,"95164",2
1353.7999999970198,450.56,47.104,true,2716.7000000029802,309331.09999999776,309980.80000000075,311334.59999999776,"Scene4_CON.png","Scene4_SEM.png",240,80,2,99,"95164",2
723.5,915.456,272.384,true,2640.7000000029802,315009.09999999776,316308.30000000075,317031.80000000075,"Scene26_CON.png","Scene26_SEM.png",240,80,4,102,"95164",2
764.2000000029802,417.792,501.76,true,2562.400000002235,320430.8999999985,321405.09999999776,322169.30000000075,"Scene16_CON.png","Scene16_SEM.png",240,80,3,105,"95164",2
1342.199999999255,184.32,577.536,true,3390.599999997765,325632.30000000075,326931.3999999985,328273.59999999776,"Scene29_CON.png","Scene29_SEM.png",240,80,4,108,"95164",2
1060.4000000022352,802.816,579.584,true,3269,331727.3999999985,332051.3999999985,333111.80000000075,"Scene61_CON.png","Scene61_SEM.png",240,80,1,111,"95164",2
3572.300000000745,376.832,647.168,true,5415.60000000149,338333.09999999776,338657.5,342229.80000000075,"Scene52_CON.png","Scene52_SEM.png",240,80,1,114,"95164",2
4331.60000000149,819.2,448.512,true,5509.5,349409.69999999925,350058.59999999776,354390.19999999925,"Scene7_CON.png","Scene7_SEM.png",240,80,2,117,"95164",2
776.3999999985099,587.776,458.752,true,3111.099999997765,358344,359317,360093.3999999985,"Scene22_CON.png","Scene22_SEM.png",240,80,3,120,"95164",2
1246.7999999970198,143.36,522.24,true,4340.099999997765,365338.5,365662.30000000075,366909.09999999776,"Scene50_CON.png","Scene50_SEM.png",240,80,1,123,"95164",2
13889.39999999851,614.4,370.688,false,15936.800000000745,374429.19999999925,375078,388967.3999999985,"Scene1_CON.png","Scene1_SEM.png",240,80,2,126,"95164",2
1299.1000000014901,579.584,571.392,true,3091,393237.30000000075,394211.19999999925,395510.30000000075,"Scene19_CON.png","Scene19_SEM.png",240,80,3,129,"95164",2
1242.4000000022352,778.24,397.312,true,3990.89999999851,399120.80000000075,400736.09999999776,401978.5,"Scene46_CON.png","Scene46_SEM.png",240,80,5,132,"95164",2
2842.300000000745,262.144,294.912,true,5013.699999999255,405950.30000000075,406599.09999999776,409441.3999999985,"Scene10_CON.png","Scene10_SEM.png",240,80,2,135,"95164",2
2723.900000002235,739.328,489.472,true,4076.599999997765,415470.5,415793.8999999985,418517.80000000075,"Scene57_CON.png","Scene57_SEM.png",240,80,1,138,"95164",2
1485.9000000022352,673.792,487.424,true,2695.5,422453.8999999985,422777.59999999776,424263.5,"Scene55_CON.png","Scene55_SEM.png",240,80,1,141,"95164",2
857.1000000014901,493.568,352.256,true,2413.400000002235,442242.59999999776,442891.8999999985,443749,"Scene3_CON.png","Scene3_SEM.png",240,80,2,144,"95164",2
1803.1000000014901,585.728,546.816,true,3551.5,457764.8999999985,458411.59999999776,460214.69999999925,"Scene12_CON.png","Scene12_SEM.png",240,80,2,147,"95164",2
2939.800000000745,892.928,120.832,true,4184.10000000149,464208.09999999776,464857.5,467797.30000000075,"Scene9_CON.png","Scene9_SEM.png",240,80,2,150,"95164",2
5013.60000000149,632.832,319.488,false,6376.699999999255,471363.80000000075,471690.3999999985,476704,"Scene51_CON.png","Scene51_SEM.png",240,80,1,153,"95164",2
756,368.64,385.024,true,2333.300000000745,480514.5,481489.30000000075,482245.30000000075,"Scene14_CON.png","Scene14_SEM.png",240,80,3,156,"95164",2
2352.699999999255,397.312,606.208,true,4025.300000000745,485673.3999999985,486644,488996.69999999925,"Scene24_CON.png","Scene24_SEM.png",240,80,3,159,"95164",2
1066.300000000745,22.528,215.04,true,2828.800000000745,492787,494085.5,495151.80000000075,"Scene30_CON.png","Scene30_SEM.png",240,80,4,162,"95164",2
1484.800000000745,557.056,460.8,true,3293,498566.09999999776,499217,500701.80000000075,"Scene6_CON.png","Scene6_SEM.png",240,80,2,165,"95164",2
2413.2999999970198,399.36,667.648,true,4834.89999999851,504797.69999999925,506421.80000000075,508835.09999999776,"Scene41_CON.png","Scene41_SEM.png",240,80,5,168,"95164",2
1649.3999999985099,661.504,444.416,true,3901.39999999851,512593.19999999925,514217.69999999925,515867.09999999776,"Scene44_CON.png","Scene44_SEM.png",240,80,5,171,"95164",2
1658.1000000014901,204.8,272.384,true,3832.199999999255,519333.30000000075,520632.19999999925,522290.30000000075,"Scene32_CON.png","Scene32_SEM.png",240,80,4,174,"95164",2
1785.3999999985099,899.072,516.096,true,3348.300000000745,525982.0999999978,526634.6999999993,528420.0999999978,"Scene2_CON.png","Scene2_SEM.png",240,80,2,177,"95164",2
2164.599999997765,825.344,565.248,true,4035.199999999255,532292.3999999985,533269.5,535434.0999999978,"Scene21_CON.png","Scene21_SEM.png",240,80,3,180,"95164",2
1561,184.32,428.032,true,3259.599999997765,539378.8000000007,540026.0999999978,541587.0999999978,"Scene5_CON.png","Scene5_SEM.png",240,80,2,183,"95164",2
4567.300000000745,337.92,534.528,true,6837.20000000298,545374.5999999978,546998.5,551565.8000000007,"Scene49_CON.png","Scene49_SEM.png",240,80,5,186,"95164",2
1098.199999999255,387.072,606.208,true,2299,555121.1999999993,555769.8999999985,556868.0999999978,"Scene11_CON.png","Scene11_SEM.png",240,80,2,189,"95164",2
1200.7999999970198,546.816,278.528,true,2022.7000000029802,560313.5999999978,560640.3000000007,561841.0999999978,"Scene54_CON.png","Scene54_SEM.png",240,80,1,192,"95164",2
1112.5999999940395,913.408,247.808,true,3121.300000011921,132064.69999998808,132393.30000001192,133505.90000000596,"example_a.jpg","example_b.jpg",240,80,1,5,"100305",2
709.1999999880791,419.84,657.408,true,3070.699999988079,140956,142588.30000001192,143297.5,"Scene43_CON.png","Scene43_SEM.png",240,80,5,9,"100305",2
1727.0999999940395,882.688,446.464,true,3886.7999999821186,147338.30000001192,147993.09999999404,149720.19999998808,"Scene2_CON.png","Scene2_SEM.png",240,80,2,12,"100305",2
701.0999999940395,90.112,526.336,true,1748.0999999940395,154172.40000000596,154499.90000000596,155201,"Scene50_CON.png","Scene50_SEM.png",240,80,1,15,"100305",2
3424.699999988079,811.008,344.064,true,4931.800000011921,159157.5,159811.90000000596,163236.59999999404,"Scene1_CON.png","Scene1_SEM.png",240,80,2,18,"100305",2
2041.300000011921,520.192,229.376,true,2957,166998,167322.19999998808,169363.5,"Scene54_CON.png","Scene54_SEM.png",240,80,1,21,"100305",2
1080.0999999940395,505.856,497.664,true,3176.800000011921,172907.19999998808,174206.5,175286.59999999404,"Scene27_CON.png","Scene27_SEM.png",240,80,4,24,"100305",2
843.0999999940395,794.624,577.536,true,2908.5,179644.30000001192,180629.09999999404,181472.19999998808,"Scene21_CON.png","Scene21_SEM.png",240,80,3,27,"100305",2
441.59999999403954,559.104,321.536,true,2784.699999988079,187595,189221,189662.59999999404,"Scene42_CON.png","Scene42_SEM.png",240,80,5,30,"100305",2
1405.199999988079,677.888,509.952,true,3487.5,193387,194690.40000000596,196095.59999999404,"Scene33_CON.png","Scene33_SEM.png",240,80,4,33,"100305",2
662.6999999880791,200.704,288.768,true,2916.5999999940395,200025,201334.80000001192,201997.5,"Scene32_CON.png","Scene32_SEM.png",240,80,4,36,"100305",2
1049.699999988079,716.8,475.136,true,2326.7000000178814,206405.59999999404,206731.5,207781.19999998808,"Scene57_CON.png","Scene57_SEM.png",240,80,1,39,"100305",2
1146.2000000178814,399.36,630.784,true,2447,212272.90000000596,212922.69999998808,214068.90000000596,"Scene11_CON.png","Scene11_SEM.png",240,80,2,42,"100305",2
407.80000001192093,901.12,614.4,true,2907.7999999821186,218005.30000001192,219632.69999998808,220040.5,"Scene38_CON.png","Scene38_SEM.png",240,80,5,45,"100305",2
374.5,532.48,321.536,true,1837.199999988079,223962.90000000596,224616.59999999404,224991.09999999404,"Scene3_CON.png","Scene3_SEM.png",240,80,2,48,"100305",2
2450.4000000059605,487.424,73.728,true,4039.2000000178814,228656.09999999404,229308.59999999404,231759,"Scene4_CON.png","Scene4_SEM.png",240,80,2,51,"100305",2
737.8999999761581,624.64,292.864,true,2790.5999999940395,236225.5,237530.80000001192,238268.69999998808,"Scene36_CON.png","Scene36_SEM.png",240,80,4,54,"100305",2
429.40000000596046,618.496,425.984,true,2633.9000000059605,242602.5,244236.59999999404,244666,"Scene44_CON.png","Scene44_SEM.png",240,80,5,57,"100305",2
379,210.944,468.992,true,2424,247927.09999999404,249232.69999998808,249611.69999998808,"Scene29_CON.png","Scene29_SEM.png",240,80,4,60,"100305",2
1176.699999988079,925.696,292.864,true,3263.800000011921,254519,255823.5,257000.19999998808,"Scene25_CON.png","Scene25_SEM.png",240,80,4,63,"100305",2
2058.9000000059605,296.96,632.832,true,3831.2000000178814,260704.69999998808,261681,263739.90000000596,"Scene23_CON.png","Scene23_SEM.png",240,80,3,66,"100305",2
608.2000000178814,374.784,454.656,true,1400.5,267445.59999999404,267774.1999999881,268382.40000000596,"Scene56_CON.png","Scene56_SEM.png",240,80,1,69,"100305",2
3335,354.304,620.544,true,4307.600000023842,271669.6999999881,271998.5,275333.5,"Scene52_CON.png","Scene52_SEM.png",240,80,1,72,"100305",2
410.5,606.208,438.272,true,2035.0999999940395,278961.8000000119,279935.90000000596,280346.40000000596,"Scene22_CON.png","Scene22_SEM.png",240,80,3,75,"100305",2
451.10000002384186,241.664,491.52,true,2978.4000000059605,283669.59999999404,285305.1999999881,285756.3000000119,"Scene40_CON.png","Scene40_SEM.png",240,80,5,78,"100305",2
2886.699999988079,53.248,208.896,true,5035.799999982119,290224.3000000119,291525,294411.6999999881,"Scene30_CON.png","Scene30_SEM.png",240,80,4,81,"100305",2
1105,808.96,436.224,true,2415.5999999940395,298854.8000000119,299507.5,300612.5,"Scene7_CON.png","Scene7_SEM.png",240,80,2,84,"100305",2
1035.0999999940395,813.056,600.064,true,2469.199999988079,304264,304595.90000000596,305631,"Scene61_CON.png","Scene61_SEM.png",240,80,1,87,"100305",2
959.8000000119209,294.912,591.872,true,3348.800000011921,310183.1999999881,311806.09999999404,312765.90000000596,"Scene39_CON.png","Scene39_SEM.png",240,80,5,90,"100305",2
1442.2000000178814,348.16,540.672,true,3697.199999988079,316475.3000000119,318105.1999999881,319547.40000000596,"Scene49_CON.png","Scene49_SEM.png",240,80,5,93,"100305",2
683.3000000119209,425.984,524.288,true,2285.0999999940395,323251.3000000119,324229.5,324912.8000000119,"Scene16_CON.png","Scene16_SEM.png",240,80,3,96,"100305",2
575.8000000119209,716.8,579.584,true,3103.7000000178814,328573.59999999404,329878,330453.8000000119,"Scene34_CON.png","Scene34_SEM.png",240,80,4,99,"100305",2
746.7000000178814,544.768,309.248,true,1698.5,334866.5,335193.1999999881,335939.90000000596,"Scene51_CON.png","Scene51_SEM.png",240,80,1,102,"100305",2
385.09999999403954,145.408,391.168,true,1872.6000000238419,339760.6999999881,340409.3000000119,340794.40000000596,"Scene5_CON.png","Scene5_SEM.png",240,80,2,105,"100305",2
427.59999999403954,397.312,653.312,true,2986.0999999940395,349394,351022.5,351450.09999999404,"Scene41_CON.png","Scene41_SEM.png",240,80,5,108,"100305",2
447.40000000596046,430.08,415.744,true,2224.399999976158,355365.8000000119,356670.5,357117.90000000596,"Scene28_CON.png","Scene28_SEM.png",240,80,4,111,"100305",2
426.7999999821186,446.464,495.616,true,1280.9000000059605,360614.09999999404,360939.8000000119,361366.59999999404,"Scene58_CON.png","Scene58_SEM.png",240,80,1,114,"100305",2
1248.2000000178814,663.552,477.184,true,2610,364696.59999999404,365023.09999999404,366271.3000000119,"Scene59_CON.png","Scene59_SEM.png",240,80,1,117,"100305",2
950.3000000119209,548.864,497.664,true,3339.199999988079,370075.5,371706.6999999881,372657,"Scene48_CON.png","Scene48_SEM.png",240,80,5,120,"100305",2
988.7999999821186,266.24,585.728,true,2087.0999999940395,376305,376629.90000000596,377618.6999999881,"Scene53_CON.png","Scene53_SEM.png",240,80,1,123,"100305",2
508.40000000596046,622.592,495.616,true,1591.5,384789,385115.09999999404,385623.5,"Scene55_CON.png","Scene55_SEM.png",240,80,1,126,"100305",2
1047.0999999940395,352.256,628.736,true,2383.300000011921,389211.5,389538.40000000596,390585.5,"Scene60_CON.png","Scene60_SEM.png",240,80,1,129,"100305",2
1126.9000000059605,815.104,120.832,true,2554.399999976158,395242.3000000119,395899.5,397026.40000000596,"Scene9_CON.png","Scene9_SEM.png",240,80,2,132,"100305",2
399.09999999403954,51.2,368.64,true,3004.0999999940395,400651.8000000119,401955.8000000119,402354.90000000596,"Scene35_CON.png","Scene35_SEM.png",240,80,4,135,"100305",2
534.0999999940395,819.2,440.32,true,3153,406761,408403.90000000596,408938,"Scene47_CON.png","Scene47_SEM.png",240,80,5,138,"100305",2
2644.9000000059605,354.304,356.352,true,4346.300000011921,412752.1999999881,413734.09999999404,416379,"Scene14_CON.png","Scene14_SEM.png",240,80,3,141,"100305",2
451.2999999821186,673.792,450.56,true,2327.800000011921,419921.6999999881,420899.90000000596,421351.1999999881,"Scene17_CON.png","Scene17_SEM.png",240,80,3,144,"100305",2
1113.199999988079,393.216,538.624,true,3238,424932.09999999404,425918.3000000119,427031.5,"Scene20_CON.png","Scene20_SEM.png",240,80,3,147,"100305",2
442,258.048,315.392,true,1717.4000000059605,431392.40000000596,432051.40000000596,432493.40000000596,"Scene10_CON.png","Scene10_SEM.png",240,80,2,150,"100305",2
751.7000000178814,233.472,673.792,true,2199.800000011921,436036,436361.1999999881,437112.90000000596,"Scene62_CON.png","Scene62_SEM.png",240,80,1,153,"100305",2
1083.0999999940395,174.08,548.864,true,3135.7999999821186,441283.90000000596,442915.40000000596,443998.5,"Scene45_CON.png","Scene45_SEM.png",240,80,5,156,"100305",2
419.2999999821186,538.624,479.232,true,1845.4000000059605,447675.09999999404,448330.90000000596,448750.1999999881,"Scene6_CON.png","Scene6_SEM.png",240,80,2,159,"100305",2
3745.5,346.112,600.064,true,5207.700000017881,452370.59999999404,453353.09999999404,457098.59999999404,"Scene24_CON.png","Scene24_SEM.png",240,80,3,162,"100305",2
813.6999999880791,169.984,561.152,true,3048.300000011921,460625.6999999881,462259.90000000596,463073.59999999404,"Scene37_CON.png","Scene37_SEM.png",240,80,5,165,"100305",2
3034.4000000059605,731.136,378.88,true,5542.5,466747.1999999881,468379.5,471413.90000000596,"Scene46_CON.png","Scene46_SEM.png",240,80,5,168,"100305",2
850.1999999880791,595.968,364.544,true,2147,476594.09999999404,477251.8000000119,478102,"Scene8_CON.png","Scene8_SEM.png",240,80,2,171,"100305",2
433.80000001192093,620.544,585.728,true,2401.0999999940395,487836.09999999404,488812.1999999881,489246,"Scene19_CON.png","Scene19_SEM.png",240,80,3,174,"100305",2
2987.4000000059605,563.2,497.664,true,4218.700000017881,493312.59999999404,493966.5,496953.90000000596,"Scene12_CON.png","Scene12_SEM.png",240,80,2,177,"100305",2
1026,884.736,243.712,true,3181.4000000059605,500804.40000000596,502099.8000000119,503125.8000000119,"Scene26_CON.png","Scene26_SEM.png",240,80,4,180,"100305",2
530.5999999940395,333.824,403.456,true,2212.199999988079,507152.3000000119,508134.90000000596,508665.5,"Scene18_CON.png","Scene18_SEM.png",240,80,3,183,"100305",2
1355,137.216,436.224,true,3405.2999999821186,512173.8000000119,513156,514511,"Scene13_CON.png","Scene13_SEM.png",240,80,3,186,"100305",2
453,528.384,307.2,true,2573.800000011921,522802.59999999404,524105.40000000596,524558.400000006,"Scene31_CON.png","Scene31_SEM.png",240,80,4,189,"100305",2
3937.5,694.272,256,true,5793,528555.3000000119,529534.5,533472,"Scene15_CON.png","Scene15_SEM.png",240,80,3,192,"100305",2
1656.5999999642372,917.504,243.712,true,3475.100000023842,53871.19999998808,54196.10000002384,55852.69999998808,"example_a.jpg","example_b.jpg",240,80,1,5,"101025",1
1875.3999999761581,475.136,75.776,true,3200.300000011921,62722.80000001192,63048.40000003576,64923.80000001192,"Scene4_CON.png","Scene4_SEM.png",240,80,1,9,"101025",1
636.8999999761581,581.632,194.56,true,3206.699999988079,68970.40000003576,70602.90000003576,71239.80000001192,"Scene54_CON.png","Scene54_SEM.png",240,80,5,12,"101025",1
892.6000000238419,151.552,450.56,true,2669.600000023842,75829.69999998808,76483.19999998808,77375.80000001192,"Scene13_CON.png","Scene13_SEM.png",240,80,2,15,"101025",1
1918.1000000238419,231.424,563.2,true,3899.400000035763,81792.69999998808,83098.30000001192,85016.40000003576,"Scene45_CON.png","Scene45_SEM.png",240,80,4,18,"101025",1
813.5,561.152,538.624,true,1797.7000000476837,88654.19999998808,88977.19999998808,89790.69999998808,"Scene12_CON.png","Scene12_SEM.png",240,80,1,21,"101025",1
2876.400000035763,770.048,471.04,true,5372.099999964237,93504.90000003576,95133.19999998808,98009.60000002384,"Scene57_CON.png","Scene57_SEM.png",240,80,5,24,"101025",1
1244.1000000238419,323.584,415.744,true,2748.699999988079,101817.10000002384,102463.80000001192,103707.90000003576,"Scene18_CON.png","Scene18_SEM.png",240,80,2,27,"101025",1
355.19999998807907,20.48,378.88,true,2243.099999964237,107563.40000003576,108547.40000003576,108902.60000002384,"Scene35_CON.png","Scene35_SEM.png",240,80,3,30,"101025",1
1414.2000000476837,772.096,487.424,true,3868.5,118230.80000001192,119850.69999998808,121264.90000003576,"Scene59_CON.png","Scene59_SEM.png",240,80,5,33,"101025",1
3771.900000035763,262.144,581.632,true,6330.100000023842,126027.19999998808,127650.69999998808,131422.60000002384,"Scene53_CON.png","Scene53_SEM.png",240,80,5,36,"101025",1
459.9000000357628,591.872,432.128,true,1806.199999988079,138349.90000003576,138997.19999998808,139457.10000002384,"Scene22_CON.png","Scene22_SEM.png",240,80,2,39,"101025",1
393.10000002384186,804.864,614.4,true,2998.099999964237,142896.60000002384,144517.30000001192,144910.40000003576,"Scene61_CON.png","Scene61_SEM.png",240,80,5,42,"101025",1
3297,550.912,507.904,true,5456.099999964237,152876.90000003576,154167.80000001192,157464.80000001192,"Scene48_CON.png","Scene48_SEM.png",240,80,4,45,"101025",1
407.4000000357628,438.272,622.592,true,2380.399999976158,165860.90000003576,167159.19999998808,167566.60000002384,"Scene43_CON.png","Scene43_SEM.png",240,80,4,48,"101025",1
856.6999999880791,636.928,458.752,true,2941.300000011921,175104.80000001192,176409.30000001192,177266,"Scene44_CON.png","Scene44_SEM.png",240,80,4,51,"101025",1
407.39999997615814,163.84,710.656,true,3189,186502.60000002384,188127.90000003576,188535.30000001192,"Scene62_CON.png","Scene62_SEM.png",240,80,5,54,"101025",1
1414.6000000238419,362.496,442.368,true,3996.400000035763,204420,206044.80000001192,207459.40000003576,"Scene56_CON.png","Scene56_SEM.png",240,80,5,57,"101025",1
4523.899999976158,219.136,651.264,true,6935.400000035763,212473.19999998808,214095.80000001192,218619.69999998808,"Scene60_CON.png","Scene60_SEM.png",240,80,5,60,"101025",1
448.2000000476837,647.168,503.808,true,2702.300000011921,223430.10000002384,225049.19999998808,225497.40000003576,"Scene55_CON.png","Scene55_SEM.png",240,80,5,63,"101025",1
1332.2000000476837,540.672,473.088,true,2573.699999988079,233738.40000003576,234061.19999998808,235393.40000003576,"Scene6_CON.png","Scene6_SEM.png",240,80,1,66,"101025",1
1727.699999988079,495.616,505.856,true,3986.199999988079,240997.90000003576,242618.5,244346.19999998808,"Scene58_CON.png","Scene58_SEM.png",240,80,5,69,"101025",1
1491.2999999523163,841.728,575.488,true,2874.099999964237,250944.10000002384,251592.40000003576,253083.69999998808,"Scene21_CON.png","Scene21_SEM.png",240,80,2,72,"101025",1
811.1999999880791,434.176,526.336,true,2206,257009.30000001192,257655.5,258466.69999998808,"Scene16_CON.png","Scene16_SEM.png",240,80,2,75,"101025",1
813,380.928,538.624,true,2214.100000023842,263955.8000000119,264602.3000000119,265415.3000000119,"Scene20_CON.png","Scene20_SEM.png",240,80,2,78,"101025",1
683.2000000476837,106.496,501.76,true,3519.699999988079,269435.60000002384,271068.1999999881,271751.40000003576,"Scene50_CON.png","Scene50_SEM.png",240,80,5,81,"101025",1
1088.800000011921,321.536,628.736,true,2444.5,280535,281178.5,282267.3000000119,"Scene23_CON.png","Scene23_SEM.png",240,80,2,84,"101025",1
864.9000000357628,770.048,399.36,false,2279.699999988079,286421,286422.1999999881,287287.10000002384,"Scene28_CON.png","Scene28_SEM.png",240,80,3,87,"101025",1
1913.5999999642372,378.88,608.256,true,3209.599999964237,293067.10000002384,293711.90000003576,295625.5,"Scene24_CON.png","Scene24_SEM.png",240,80,2,90,"101025",1
702.8999999761581,194.56,419.84,true,1756.7999999523163,299333.90000003576,299661.3000000119,300364.1999999881,"Scene5_CON.png","Scene5_SEM.png",240,80,1,93,"101025",1
927.3999999761581,51.2,245.76,true,2987.199999988079,304629.5,305605.10000002384,306532.5,"Scene30_CON.png","Scene30_SEM.png",240,80,3,96,"101025",1
1368.1000000238419,847.872,423.936,true,2570.899999976158,311363.3000000119,311690.8000000119,313058.90000003576,"Scene7_CON.png","Scene7_SEM.png",240,80,1,99,"101025",1
4463.199999988079,370.688,362.496,true,6118.699999988079,319541.8000000119,320197.60000002384,324660.8000000119,"Scene14_CON.png","Scene14_SEM.png",240,80,2,102,"101025",1
859.3000000119209,329.728,573.44,true,2930,329529.90000003576,330830.3000000119,331689.60000002384,"Scene39_CON.png","Scene39_SEM.png",240,80,4,105,"101025",1
1216.699999988079,800.768,133.12,true,2330.5,336895.6999999881,337218.40000003576,338435.10000002384,"Scene9_CON.png","Scene9_SEM.png",240,80,1,108,"101025",1
1462.199999988079,563.2,364.544,true,4018.599999964237,342907.60000002384,344533.3000000119,345995.5,"Scene51_CON.png","Scene51_SEM.png",240,80,5,111,"101025",1
3662.899999976158,790.528,387.072,true,4974.699999988079,350788.90000003576,351114.90000003576,354777.8000000119,"Scene1_CON.png","Scene1_SEM.png",240,80,1,114,"101025",1
847.3999999761581,206.848,305.152,true,2696.199999988079,358740.10000002384,359712.10000002384,360559.5,"Scene32_CON.png","Scene32_SEM.png",240,80,3,117,"101025",1
475.80000001192093,880.64,260.096,true,2829.699999988079,365634.10000002384,366602.8000000119,367078.60000002384,"Scene26_CON.png","Scene26_SEM.png",240,80,3,120,"101025",1
572.1999999880791,184.32,520.192,true,2797.899999976158,372583.8000000119,373551.90000003576,374124.10000002384,"Scene29_CON.png","Scene29_SEM.png",240,80,3,123,"101025",1
1202.6000000238419,698.368,522.24,true,3126.800000011921,382176.6999999881,383144,384346.60000002384,"Scene33_CON.png","Scene33_SEM.png",240,80,3,126,"101025",1
516,491.52,385.024,true,1583.1000000238419,388284.3000000119,388613.3000000119,389129.3000000119,"Scene3_CON.png","Scene3_SEM.png",240,80,1,129,"101025",1
765.1000000238419,419.84,622.592,true,2123.599999964237,393096.60000002384,393418.6999999881,394183.8000000119,"Scene11_CON.png","Scene11_SEM.png",240,80,1,132,"101025",1
1758.699999988079,520.192,516.096,true,3456.199999988079,401398,402369.60000002384,404128.3000000119,"Scene27_CON.png","Scene27_SEM.png",240,80,3,135,"101025",1
449.30000001192093,538.624,305.152,true,2462.800000011921,409015,409989,410438.3000000119,"Scene31_CON.png","Scene31_SEM.png",240,80,3,138,"101025",1
653.7999999523163,763.904,401.408,true,3032.7000000476837,414768.6999999881,416058.40000003576,416712.1999999881,"Scene46_CON.png","Scene46_SEM.png",240,80,4,141,"101025",1
502.10000002384186,860.16,575.488,true,2502.5,423742.6999999881,425041.6999999881,425543.8000000119,"Scene38_CON.png","Scene38_SEM.png",240,80,4,144,"101025",1
421.19999998807907,206.848,505.856,true,2735.2000000476837,430063.6999999881,431360,431781.1999999881,"Scene37_CON.png","Scene37_SEM.png",240,80,4,147,"101025",1
2245.199999988079,368.64,675.84,true,4671.600000023842,447955.6999999881,449580,451825.1999999881,"Scene52_CON.png","Scene52_SEM.png",240,80,5,150,"101025",1
757.3999999761581,550.912,436.224,true,1808.800000011921,456411.60000002384,456737.40000003576,457494.8000000119,"Scene8_CON.png","Scene8_SEM.png",240,80,1,153,"101025",1
771.1999999880791,714.752,577.536,true,2633.7999999523163,460957.40000003576,461931.10000002384,462702.3000000119,"Scene34_CON.png","Scene34_SEM.png",240,80,3,156,"101025",1
843.8999999761581,237.568,505.856,true,3212.699999988079,467406.40000003576,468705.8000000119,469549.6999999881,"Scene40_CON.png","Scene40_SEM.png",240,80,4,159,"101025",1
1772.199999988079,393.216,667.648,true,4197.100000023842,473787.5,475091.10000002384,476863.3000000119,"Scene41_CON.png","Scene41_SEM.png",240,80,4,162,"101025",1
513.3000000119209,899.072,292.864,true,2853.2000000476837,481320.1999999881,482293.1999999881,482806.5,"Scene25_CON.png","Scene25_SEM.png",240,80,3,165,"101025",1
888.2999999523163,708.608,471.04,true,2847,489681.3000000119,490328.40000003576,491216.6999999881,"Scene17_CON.png","Scene17_SEM.png",240,80,2,168,"101025",1
718.6999999880791,256,333.824,true,1836.4000000357628,496407,496729.5,497448.1999999881,"Scene10_CON.png","Scene10_SEM.png",240,80,1,171,"101025",1
2223.300000011921,352.256,538.624,true,4377.199999988079,501418.5,502714.10000002384,504937.40000003576,"Scene49_CON.png","Scene49_SEM.png",240,80,4,174,"101025",1
893.5999999642372,628.736,589.824,true,2578.199999988079,509368.8000000119,510020.40000003576,510914,"Scene19_CON.png","Scene19_SEM.png",240,80,2,177,"101025",1
858.3999999761581,598.016,303.104,true,2955.199999988079,514981.8000000119,515957.3000000119,516815.6999999881,"Scene36_CON.png","Scene36_SEM.png",240,80,3,180,"101025",1
1400.3999999761581,694.272,288.768,true,3081.699999988079,524241.5,524890.9000000358,526291.3000000119,"Scene15_CON.png","Scene15_SEM.png",240,80,2,183,"101025",1
751.4000000357628,817.152,430.08,true,2851,531747.3000000119,533042.6999999881,533794.1000000238,"Scene47_CON.png","Scene47_SEM.png",240,80,4,186,"101025",1
7339.399999976158,530.432,346.112,true,9594,543278.6000000238,544573.6000000238,551913,"Scene42_CON.png","Scene42_SEM.png",240,80,4,189,"101025",1
3665.599999964237,919.552,479.232,true,4988.800000011921,555970.3000000119,556298.4000000358,559964,"Scene2_CON.png","Scene2_SEM.png",240,80,1,192,"101025",1
1773.800000011921,921.6,223.232,true,3042.199999988079,1337419.3999999762,1337742.199999988,1339516,"example_a.jpg","example_b.jpg",240,80,1,5,"100975",3
2724.800000011921,436.224,557.056,true,3504.5,1346131.5,1346453.5,1349178.300000012,"Scene43_CON.png","Scene43_SEM.png",240,80,1,9,"100975",3
1863,266.24,589.824,true,2919.800000011921,1352833.5999999642,1353478.199999988,1355341.199999988,"Scene53_CON.png","Scene53_SEM.png",240,80,2,12,"100975",3
2005,342.016,434.176,true,4077,1359963.3999999762,1361586.5,1363591.5,"Scene28_CON.png","Scene28_SEM.png",240,80,5,15,"100975",3
1278.199999988079,208.896,667.648,true,2452.099999964237,1366743.300000012,1367387,1368665.199999988,"Scene62_CON.png","Scene62_SEM.png",240,80,2,18,"100975",3
1548,350.208,647.168,true,2623.5,1372248.199999988,1372892.5999999642,1374440.5999999642,"Scene52_CON.png","Scene52_SEM.png",240,80,2,21,"100975",3
1399.199999988079,915.456,262.144,true,3517.600000023842,1378070.199999988,1379679.5,1381078.699999988,"Scene25_CON.png","Scene25_SEM.png",240,80,5,24,"100975",3
1274.3999999761581,481.28,524.288,true,3354.300000011921,1384981.699999988,1386591.699999988,1387866.0999999642,"Scene27_CON.png","Scene27_SEM.png",240,80,5,27,"100975",3
3217.099999964237,571.392,360.448,true,4348.900000035763,1391210.3999999762,1391861.800000012,1395078.8999999762,"Scene51_CON.png","Scene51_SEM.png",240,80,2,30,"100975",3
1197.699999988079,890.88,268.288,true,3200.600000023842,1398369.0999999642,1399993.300000012,1401191,"Scene26_CON.png","Scene26_SEM.png",240,80,5,33,"100975",3
632.3000000119209,215.04,276.48,true,2636.599999964237,1404388.5,1406008.5999999642,1406640.8999999762,"Scene32_CON.png","Scene32_SEM.png",240,80,5,36,"100975",3
965.5,409.6,524.288,true,2881.599999964237,1409860,1411150,1412115.5,"Scene16_CON.png","Scene16_SEM.png",240,80,4,39,"100975",3
684.1000000238419,217.088,559.104,true,1514.800000011921,1415672.0999999642,1415994.3999999762,1416678.5,"Scene40_CON.png","Scene40_SEM.png",240,80,1,42,"100975",3
1111.3999999761581,184.32,526.336,true,3076.300000011921,1419996.5999999642,1421605.800000012,1422717.199999988,"Scene29_CON.png","Scene29_SEM.png",240,80,5,45,"100975",3
2114.5,555.008,489.472,true,3394.900000035763,1425656.3999999762,1426640.5,1428755,"Scene8_CON.png","Scene8_SEM.png",240,80,3,48,"100975",3
2811.199999988079,356.352,561.152,true,3487.100000023842,1431605.0999999642,1431929.300000012,1434740.5,"Scene49_CON.png","Scene49_SEM.png",240,80,1,51,"100975",3
614.1999999880791,399.36,552.96,true,2334.600000023842,1437616.3999999762,1438902.800000012,1439517,"Scene20_CON.png","Scene20_SEM.png",240,80,4,54,"100975",3
5686.400000035763,129.024,483.328,true,6417.600000023842,1442419.8999999762,1442741.8999999762,1448428.300000012,"Scene37_CON.png","Scene37_SEM.png",240,80,1,57,"100975",3
858.5,380.928,350.208,true,2623.300000011921,1451346.699999988,1452636,1453494.5,"Scene14_CON.png","Scene14_SEM.png",240,80,4,60,"100975",3
3772.5,339.968,385.024,true,5493.5,1456522.3999999762,1457831.699999988,1461604.199999988,"Scene18_CON.png","Scene18_SEM.png",240,80,4,63,"100975",3
1512.9000000357628,583.68,327.68,true,2196.599999964237,1464592.800000012,1464915.8999999762,1466428.800000012,"Scene42_CON.png","Scene42_SEM.png",240,80,1,66,"100975",3
1988.300000011921,266.24,309.248,true,3262.400000035763,1469225.5999999642,1470190.5,1472178.800000012,"Scene10_CON.png","Scene10_SEM.png",240,80,3,69,"100975",3
1170,225.28,583.68,true,1830.7999999523163,1474924.800000012,1475247.699999988,1476417.699999988,"Scene45_CON.png","Scene45_SEM.png",240,80,1,72,"100975",3
1860.2999999523163,552.96,507.904,true,3368.699999988079,1479241.199999988,1480207.300000012,1482067.5999999642,"Scene12_CON.png","Scene12_SEM.png",240,80,3,75,"100975",3
4712.100000023842,620.544,591.872,true,6446.800000011921,1485065,1486367.199999988,1491079.300000012,"Scene19_CON.png","Scene19_SEM.png",240,80,4,78,"100975",3
1129.6000000238419,530.432,278.528,true,2132.599999964237,1494082.5,1494725.0999999642,1495854.699999988,"Scene54_CON.png","Scene54_SEM.png",240,80,2,81,"100975",3
1930,436.224,466.944,true,2973.5,1499042.0999999642,1499686.8999999762,1501616.8999999762,"Scene56_CON.png","Scene56_SEM.png",240,80,2,84,"100975",3
462.2999999523163,51.2,378.88,true,2528.199999988079,1504538.3999999762,1506168.300000012,1506630.5999999642,"Scene35_CON.png","Scene35_SEM.png",240,80,5,87,"100975",3
515.5,718.848,456.704,true,2180.300000011921,1509614.199999988,1510914.199999988,1511429.699999988,"Scene17_CON.png","Scene17_SEM.png",240,80,4,90,"100975",3
497.9000000357628,145.408,409.6,true,2327.399999976158,1514270.199999988,1515582.8999999762,1516080.800000012,"Scene13_CON.png","Scene13_SEM.png",240,80,4,93,"100975",3
2419.800000011921,602.112,462.848,true,4147.5,1519345.800000012,1520635.0999999642,1523054.8999999762,"Scene22_CON.png","Scene22_SEM.png",240,80,4,96,"100975",3
2325.399999976158,753.664,395.264,true,3206,1526017.199999988,1526340.800000012,1528666.199999988,"Scene46_CON.png","Scene46_SEM.png",240,80,1,99,"100975",3
555.8999999761581,561.152,479.232,true,1960.300000011921,1535121.199999988,1536087,1536642.8999999762,"Scene6_CON.png","Scene6_SEM.png",240,80,3,102,"100975",3
685.4000000357628,628.736,491.52,true,1700.5,1539525.3999999762,1540170.5999999642,1540856,"Scene55_CON.png","Scene55_SEM.png",240,80,2,105,"100975",3
598.1999999880791,638.976,319.488,true,2708.2000000476837,1543671.5999999642,1545282.5,1545880.699999988,"Scene36_CON.png","Scene36_SEM.png",240,80,5,108,"100975",3
12989.699999988079,798.72,362.496,true,14596.699999988079,1549049.199999988,1550016.199999988,1563005.8999999762,"Scene1_CON.png","Scene1_SEM.png",240,80,3,111,"100975",3
1545.699999988079,448.512,499.712,true,2625.199999988079,1566228.199999988,1566872.300000012,1568418,"Scene58_CON.png","Scene58_SEM.png",240,80,2,114,"100975",3
1528.199999988079,471.04,43.008,true,3205.399999976158,1571361.800000012,1572327.8999999762,1573856.0999999642,"Scene4_CON.png","Scene4_SEM.png",240,80,3,117,"100975",3
947.8000000119209,661.504,286.72,true,3281.5,1577339.800000012,1578632.3999999762,1579580.199999988,"Scene15_CON.png","Scene15_SEM.png",240,80,4,120,"100975",3
1040.5,542.72,503.808,true,1781.2999999523163,1583441.800000012,1583765.300000012,1584805.800000012,"Scene48_CON.png","Scene48_SEM.png",240,80,1,123,"100975",3
657.8999999761581,311.296,647.168,true,1812.199999988079,1587664.5,1588309,1588966.8999999762,"Scene60_CON.png","Scene60_SEM.png",240,80,2,126,"100975",3
633.6000000238419,88.064,532.48,true,1697.699999988079,1592078,1592722.199999988,1593355.800000012,"Scene50_CON.png","Scene50_SEM.png",240,80,2,129,"100975",3
1808.4000000357628,589.824,264.192,true,3812.100000023842,1596314.0999999642,1597934.3999999762,1599742.800000012,"Scene31_CON.png","Scene31_SEM.png",240,80,5,132,"100975",3
461.5999999642372,866.304,403.456,true,1737.800000011921,1602602.199999988,1603568.300000012,1604029.8999999762,"Scene7_CON.png","Scene7_SEM.png",240,80,3,135,"100975",3
1183.300000011921,892.928,493.568,true,2635.400000035763,1606879.8999999762,1607846.8999999762,1609030.199999988,"Scene2_CON.png","Scene2_SEM.png",240,80,3,138,"100975",3
772.5,802.816,471.04,true,1869.300000011921,1612000.0999999642,1612645.199999988,1613417.699999988,"Scene59_CON.png","Scene59_SEM.png",240,80,2,141,"100975",3
622.5,397.312,653.312,true,1511.5,1616461.5,1616783.3999999762,1617405.8999999762,"Scene41_CON.png","Scene41_SEM.png",240,80,1,144,"100975",3
964.6999999880791,65.536,210.944,true,3026.600000023842,1620793.0999999642,1622403,1623367.699999988,"Scene30_CON.png","Scene30_SEM.png",240,80,5,147,"100975",3
508.5,901.12,614.4,true,1131.300000011921,1626388.0999999642,1626710.300000012,1627218.800000012,"Scene38_CON.png","Scene38_SEM.png",240,80,1,150,"100975",3
651.5999999642372,815.104,413.696,true,1378,1629995.3999999762,1630318.300000012,1630969.8999999762,"Scene47_CON.png","Scene47_SEM.png",240,80,1,153,"100975",3
553.1999999880791,327.68,657.408,true,1286.800000011921,1633843.8999999762,1634166,1634719.199999988,"Scene39_CON.png","Scene39_SEM.png",240,80,1,156,"100975",3
433.19999998807907,819.2,589.824,true,1473.300000011921,1637628,1638273,1638706.199999988,"Scene61_CON.png","Scene61_SEM.png",240,80,2,159,"100975",3
1843.300000011921,819.2,587.776,true,3833.300000011921,1641578.0999999642,1642875.0999999642,1644718.3999999762,"Scene21_CON.png","Scene21_SEM.png",240,80,4,162,"100975",3
496.5,677.888,466.944,true,1191.199999988079,1648262.3999999762,1648584.8999999762,1649081.3999999762,"Scene44_CON.png","Scene44_SEM.png",240,80,1,165,"100975",3
1034.5999999642372,686.08,507.904,true,3074.100000023842,1652069.0999999642,1653684,1654718.5999999642,"Scene33_CON.png","Scene33_SEM.png",240,80,5,168,"100975",3
942.2000000476837,770.048,567.296,true,2879.7000000476837,1657603.5999999642,1659214.0999999642,1660156.300000012,"Scene34_CON.png","Scene34_SEM.png",240,80,5,171,"100975",3
2215,733.184,387.072,false,4009.100000023842,1662988.0999999642,1664278.699999988,1666493.699999988,"Scene23_CON.png","Scene23_SEM.png",240,80,4,174,"100975",3
6842.599999964237,376.832,606.208,true,8466.599999964237,1670025,1671313,1678155.5999999642,"Scene24_CON.png","Scene24_SEM.png",240,80,4,177,"100975",3
836.9000000357628,501.76,366.592,true,2154.7999999523163,1680992.300000012,1681981.3999999762,1682818.300000012,"Scene3_CON.png","Scene3_SEM.png",240,80,3,180,"100975",3
1436.5,446.464,661.504,true,2809.599999964237,1685664.300000012,1686632.3999999762,1688068.8999999762,"Scene11_CON.png","Scene11_SEM.png",240,80,3,183,"100975",3
1743.300000011921,864.256,90.112,true,3050.600000023842,1690934.0999999642,1691914.3999999762,1693657.699999988,"Scene9_CON.png","Scene9_SEM.png",240,80,3,186,"100975",3
619.6999999880791,753.664,501.76,true,1600.2999999523163,1696503.800000012,1697149.8999999762,1697769.5999999642,"Scene57_CON.png","Scene57_SEM.png",240,80,2,189,"100975",3
1770.199999988079,186.368,387.072,true,3004.300000011921,1700547.199999988,1701512.699999988,1703282.8999999762,"Scene5_CON.png","Scene5_SEM.png",240,80,3,192,"100975",3
1560.1000000238419,915.456,237.568,true,4004,289513.1999999285,289837.09999990463,291397.1999999285,"example_a.jpg","example_b.jpg",240,80,1,5,"101235",4
1918,692.224,446.464,true,4463.899999976158,297782.6999999285,299405.1999999285,301323.1999999285,"Scene17_CON.png","Scene17_SEM.png",240,80,5,9,"101235",4
2266.7999999523163,702.464,503.808,true,3565.7999999523163,305105.89999997616,305432.39999997616,307699.1999999285,"Scene33_CON.png","Scene33_SEM.png",240,80,1,12,"101235",4
1128.3999999761581,638.976,421.888,true,2562.899999976158,311685.89999997616,312339,313467.39999997616,"Scene44_CON.png","Scene44_SEM.png",240,80,2,15,"101235",4
