run_id,condition,success,timeout,failed_images,failed_audio,failed_video,trial_type,trial_index,time_elapsed,internal_node_id,sona_id,rt,stimulus,response,PosX,PosY,hit,trial_dur,trialStart,changeOnset,key_time,first_image,second_image,image_duration,mask_duration,recorded_at,ip,user_agent,device,browser,browser_version,platform,platform_version,source_code_version
1,1,true,false,[],[],[],preload,0,15360,0.0-0.0,86134,"""","""","""","""","""","""","""","""","""","""","""","""","""","""",2022-01-22 22:21:24,98.41.189.27,"Mozilla/5.0 (Macintosh; Intel Mac OS X 10_13_6) AppleWebKit/537.36 (KHTML, like Gecko) Chrome/96.0.4664.55 Safari/537.36",Macintosh,Chrome,96.0.4664.55,OS X,10_13_6,42dc06cf6f210f01c904868893d507e0
1,1,"""","""","""","""","""",html-button-response,1,20770,0.0-1.0,86134,5397.200000047684,<h3>Welcome to the experiment!</h3><p>Your task is to <b>spot a distortion in a flickering picture.</b></p>,0,"""","""","""","""","""","""","""","""","""","""","""",2022-01-22 22:21:24,98.41.189.27,"Mozilla/5.0 (Macintosh; Intel Mac OS X 10_13_6) AppleWebKit/537.36 (KHTML, like Gecko) Chrome/96.0.4664.55 Safari/537.36",Macintosh,Chrome,96.0.4664.55,OS X,10_13_6,42dc06cf6f210f01c904868893d507e0
1,1,"""","""","""","""","""",html-button-response,2,31792,0.0-2.0,86134,11020.399999856949,<p>You will see a picture <b>flicker</b> on your screen.<br>There will be a portion of the picture that will <b>distort</b> while the picture is flickering.<br>Try to find the location of the distortion <b>as quickly as possible!</b></p>,0,"""","""","""","""","""","""","""","""","""","""","""",2022-01-22 22:21:24,98.41.189.27,"Mozilla/5.0 (Macintosh; Intel Mac OS X 10_13_6) AppleWebKit/537.36 (KHTML, like Gecko) Chrome/96.0.4664.55 Safari/537.36",Macintosh,Chrome,96.0.4664.55,OS X,10_13_6,42dc06cf6f210f01c904868893d507e0
1,1,"""","""","""","""","""",html-button-response,3,43802,0.0-3.0,86134,12007,"<p>When you find the distortion, <b>press the spacebar once</b> to stop the image from flickering.<br>Then, <b>use your mouse and click</b> on the location where you saw the distortion.</p>",0,"""","""","""","""","""","""","""","""","""","""","""",2022-01-22 22:21:24,98.41.189.27,"Mozilla/5.0 (Macintosh; Intel Mac OS X 10_13_6) AppleWebKit/537.36 (KHTML, like Gecko) Chrome/96.0.4664.55 Safari/537.36",Macintosh,Chrome,96.0.4664.55,OS X,10_13_6,42dc06cf6f210f01c904868893d507e0
1,1,"""","""","""","""","""",html-button-response,4,51763,0.0-4.0,86134,7960.5,"<p>If you can't find the distortion in 30 seconds, the image will automatically stop flickering.<br>If that happens, just make a guess as to where the distortion occurred.",0,"""","""","""","""","""","""","""","""","""","""","""",2022-01-22 22:21:24,98.41.189.27,"Mozilla/5.0 (Macintosh; Intel Mac OS X 10_13_6) AppleWebKit/537.36 (KHTML, like Gecko) Chrome/96.0.4664.55 Safari/537.36",Macintosh,Chrome,96.0.4664.55,OS X,10_13_6,42dc06cf6f210f01c904868893d507e0
1,1,"""","""","""","""","""",html-keyboard-response,5,53770,0.0-5.0-0.0,86134,null,"<div class=""container-debug"" style=""background-color:gray;height:525px;width:700px""><div style=""font-size:60px;color:white;text-align:center;vertical-align:middle;line-height:525px;"">+</div></div>",null,"""","""","""","""","""","""","""","""","""","""","""",2022-01-22 22:21:24,98.41.189.27,"Mozilla/5.0 (Macintosh; Intel Mac OS X 10_13_6) AppleWebKit/537.36 (KHTML, like Gecko) Chrome/96.0.4664.55 Safari/537.36",Macintosh,Chrome,96.0.4664.55,OS X,10_13_6,42dc06cf6f210f01c904868893d507e0
1,1,"""","""","""","""","""",cb-flicker,6,57961,0.0-5.0-1.0,86134,NaN,"""","""",215.04,441.78285714285715,false,4189.200000047684,55098.200000047684,55099.200000047684,"""",target_desert.png,target_desert_HighMean.png,240,80,2022-01-22 22:21:24,98.41.189.27,"Mozilla/5.0 (Macintosh; Intel Mac OS X 10_13_6) AppleWebKit/537.36 (KHTML, like Gecko) Chrome/96.0.4664.55 Safari/537.36",Macintosh,Chrome,96.0.4664.55,OS X,10_13_6,42dc06cf6f210f01c904868893d507e0
1,1,"""","""","""","""","""",html-button-response,7,60416,0.0-5.0-2.0,86134,2452.399999856949,"<h3>Sorry, that's not where the distortion was.</h3>",0,"""","""","""","""","""","""","""","""","""","""","""",2022-01-22 22:21:24,98.41.189.27,"Mozilla/5.0 (Macintosh; Intel Mac OS X 10_13_6) AppleWebKit/537.36 (KHTML, like Gecko) Chrome/96.0.4664.55 Safari/537.36",Macintosh,Chrome,96.0.4664.55,OS X,10_13_6,42dc06cf6f210f01c904868893d507e0
1,1,"""","""","""","""","""",html-button-response,8,69738,0.0-6.0,86134,9320.800000190735,"<h3>Were you able to spot it? Just in case, here were the two versions, side-by-side, with the distortion circled in red.</h3><img src=""target_desert.png"" alt=""First image"" width=""500"" height=""375""><img src=""target_desert_HighMean_circled.png"" alt=""Distortion-circled image"" width=""500"" height=""375"">",0,"""","""","""","""","""","""","""","""","""","""","""",2022-01-22 22:21:24,98.41.189.27,"Mozilla/5.0 (Macintosh; Intel Mac OS X 10_13_6) AppleWebKit/537.36 (KHTML, like Gecko) Chrome/96.0.4664.55 Safari/537.36",Macintosh,Chrome,96.0.4664.55,OS X,10_13_6,42dc06cf6f210f01c904868893d507e0
1,1,"""","""","""","""","""",html-button-response,9,87336,0.0-7.0,86134,17596,"<p>You will be timed on how quickly you can spot the distortion.<br>The timer will begin as soon as you see the first image, and will stop as soon as you press the spacebar.<br>So, try to <b>press the spacebar</b> as soon as you spot the distortion!</p>",0,"""","""","""","""","""","""","""","""","""","""","""",2022-01-22 22:21:24,98.41.189.27,"Mozilla/5.0 (Macintosh; Intel Mac OS X 10_13_6) AppleWebKit/537.36 (KHTML, like Gecko) Chrome/96.0.4664.55 Safari/537.36",Macintosh,Chrome,96.0.4664.55,OS X,10_13_6,42dc06cf6f210f01c904868893d507e0
1,1,"""","""","""","""","""",html-button-response,10,92591,0.0-8.0,86134,5253.699999809265,<p>Let's try one more demo trial before we begin the experiment.</p>,0,"""","""","""","""","""","""","""","""","""","""","""",2022-01-22 22:21:24,98.41.189.27,"Mozilla/5.0 (Macintosh; Intel Mac OS X 10_13_6) AppleWebKit/537.36 (KHTML, like Gecko) Chrome/96.0.4664.55 Safari/537.36",Macintosh,Chrome,96.0.4664.55,OS X,10_13_6,42dc06cf6f210f01c904868893d507e0
1,1,"""","""","""","""","""",html-keyboard-response,11,94598,0.0-9.0-0.0,86134,null,"<div class=""container-debug"" style=""background-color:gray;height:525px;width:700px""><div style=""font-size:60px;color:white;text-align:center;vertical-align:middle;line-height:525px;"">+</div></div>",null,"""","""","""","""","""","""","""","""","""","""","""",2022-01-22 22:21:24,98.41.189.27,"Mozilla/5.0 (Macintosh; Intel Mac OS X 10_13_6) AppleWebKit/537.36 (KHTML, like Gecko) Chrome/96.0.4664.55 Safari/537.36",Macintosh,Chrome,96.0.4664.55,OS X,10_13_6,42dc06cf6f210f01c904868893d507e0
1,1,"""","""","""","""","""",cb-flicker,12,100265,0.0-9.0-1.0,86134,NaN,"""","""",756.2971428571428,601.2342857142858,true,5665.700000047684,95925.20000004768,95925.90000009537,"""",target_desert.png,target_desert_HighSal.png,240,80,2022-01-22 22:21:24,98.41.189.27,"Mozilla/5.0 (Macintosh; Intel Mac OS X 10_13_6) AppleWebKit/537.36 (KHTML, like Gecko) Chrome/96.0.4664.55 Safari/537.36",Macintosh,Chrome,96.0.4664.55,OS X,10_13_6,42dc06cf6f210f01c904868893d507e0
1,1,"""","""","""","""","""",html-button-response,13,101644,0.0-9.0-2.0,86134,1377,<h3>Correct!</h3>,0,"""","""","""","""","""","""","""","""","""","""","""",2022-01-22 22:21:24,98.41.189.27,"Mozilla/5.0 (Macintosh; Intel Mac OS X 10_13_6) AppleWebKit/537.36 (KHTML, like Gecko) Chrome/96.0.4664.55 Safari/537.36",Macintosh,Chrome,96.0.4664.55,OS X,10_13_6,42dc06cf6f210f01c904868893d507e0
1,1,"""","""","""","""","""",html-button-response,14,107551,0.0-10.0,86134,5905.700000047684,"<h3>So, to recap:</h3><p>You will see a picture <b>flicker</b> on your screen.<br>A distortion will appear while the picture is flickering.<br>Find the location of the distortion <b>as quickly as possible!</b><br>When you find the distortion, <b>press the spacebar once</b> to stop the image from flickering.<br>Then, <b>use your mouse and click</b> on the location where you saw the distortion.</p>",0,"""","""","""","""","""","""","""","""","""","""","""",2022-01-22 22:21:24,98.41.189.27,"Mozilla/5.0 (Macintosh; Intel Mac OS X 10_13_6) AppleWebKit/537.36 (KHTML, like Gecko) Chrome/96.0.4664.55 Safari/537.36",Macintosh,Chrome,96.0.4664.55,OS X,10_13_6,42dc06cf6f210f01c904868893d507e0
1,1,"""","""","""","""","""",html-keyboard-response,15,109556,0.0-11.0-0.0,86134,null,"<div class=""container-debug"" style=""background-color:gray;height:525px;width:700px""><div style=""font-size:60px;color:white;text-align:center;vertical-align:middle;line-height:525px;"">+</div></div>",null,"""","""","""","""","""","""","""","""","""","""","""",2022-01-22 22:21:24,98.41.189.27,"Mozilla/5.0 (Macintosh; Intel Mac OS X 10_13_6) AppleWebKit/537.36 (KHTML, like Gecko) Chrome/96.0.4664.55 Safari/537.36",Macintosh,Chrome,96.0.4664.55,OS X,10_13_6,42dc06cf6f210f01c904868893d507e0
1,1,"""","""","""","""","""",cb-flicker,16,116006,0.0-11.0-1.0,86134,NaN,"""","""",280.86857142857144,332.06857142857143,true,6448.700000047684,110882.90000009537,110883.40000009537,"""",target_diner.png,target_diner_HighMean.png,240,80,2022-01-22 22:21:24,98.41.189.27,"Mozilla/5.0 (Macintosh; Intel Mac OS X 10_13_6) AppleWebKit/537.36 (KHTML, like Gecko) Chrome/96.0.4664.55 Safari/537.36",Macintosh,Chrome,96.0.4664.55,OS X,10_13_6,42dc06cf6f210f01c904868893d507e0
1,1,"""","""","""","""","""",html-button-response,17,117296,0.0-11.0-2.0,86134,1287.5,<h3>Correct!</h3>,0,"""","""","""","""","""","""","""","""","""","""","""",2022-01-22 22:21:24,98.41.189.27,"Mozilla/5.0 (Macintosh; Intel Mac OS X 10_13_6) AppleWebKit/537.36 (KHTML, like Gecko) Chrome/96.0.4664.55 Safari/537.36",Macintosh,Chrome,96.0.4664.55,OS X,10_13_6,42dc06cf6f210f01c904868893d507e0
1,1,"""","""","""","""","""",html-keyboard-response,18,119297,0.0-11.0-0.1,86134,null,"<div class=""container-debug"" style=""background-color:gray;height:525px;width:700px""><div style=""font-size:60px;color:white;text-align:center;vertical-align:middle;line-height:525px;"">+</div></div>",null,"""","""","""","""","""","""","""","""","""","""","""",2022-01-22 22:21:24,98.41.189.27,"Mozilla/5.0 (Macintosh; Intel Mac OS X 10_13_6) AppleWebKit/537.36 (KHTML, like Gecko) Chrome/96.0.4664.55 Safari/537.36",Macintosh,Chrome,96.0.4664.55,OS X,10_13_6,42dc06cf6f210f01c904868893d507e0
1,1,"""","""","""","""","""",cb-flicker,19,122029,0.0-11.0-1.1,86134,NaN,"""","""",691.9314285714286,482.74285714285713,true,2731.0999999046326,120623.60000014305,120624.40000009537,"""",target_classroom.png,target_classroom_HighSal.png,240,80,2022-01-22 22:21:24,98.41.189.27,"Mozilla/5.0 (Macintosh; Intel Mac OS X 10_13_6) AppleWebKit/537.36 (KHTML, like Gecko) Chrome/96.0.4664.55 Safari/537.36",Macintosh,Chrome,96.0.4664.55,OS X,10_13_6,42dc06cf6f210f01c904868893d507e0
1,1,"""","""","""","""","""",html-button-response,20,122812,0.0-11.0-2.1,86134,781.2999999523163,<h3>Correct!</h3>,0,"""","""","""","""","""","""","""","""","""","""","""",2022-01-22 22:21:24,98.41.189.27,"Mozilla/5.0 (Macintosh; Intel Mac OS X 10_13_6) AppleWebKit/537.36 (KHTML, like Gecko) Chrome/96.0.4664.55 Safari/537.36",Macintosh,Chrome,96.0.4664.55,OS X,10_13_6,42dc06cf6f210f01c904868893d507e0
1,1,"""","""","""","""","""",html-keyboard-response,21,124818,0.0-11.0-0.2,86134,null,"<div class=""container-debug"" style=""background-color:gray;height:525px;width:700px""><div style=""font-size:60px;color:white;text-align:center;vertical-align:middle;line-height:525px;"">+</div></div>",null,"""","""","""","""","""","""","""","""","""","""","""",2022-01-22 22:21:24,98.41.189.27,"Mozilla/5.0 (Macintosh; Intel Mac OS X 10_13_6) AppleWebKit/537.36 (KHTML, like Gecko) Chrome/96.0.4664.55 Safari/537.36",Macintosh,Chrome,96.0.4664.55,OS X,10_13_6,42dc06cf6f210f01c904868893d507e0
1,1,"""","""","""","""","""",cb-flicker,22,127473,0.0-11.0-1.2,86134,NaN,"""","""",485.66857142857145,210.65142857142857,true,2653.4000000953674,126145,126145.70000004768,"""",target_acquarium.png,target_acquarium_HighMean.png,240,80,2022-01-22 22:21:24,98.41.189.27,"Mozilla/5.0 (Macintosh; Intel Mac OS X 10_13_6) AppleWebKit/537.36 (KHTML, like Gecko) Chrome/96.0.4664.55 Safari/537.36",Macintosh,Chrome,96.0.4664.55,OS X,10_13_6,42dc06cf6f210f01c904868893d507e0
1,1,"""","""","""","""","""",html-button-response,23,128598,0.0-11.0-2.2,86134,1123.4000000953674,<h3>Correct!</h3>,0,"""","""","""","""","""","""","""","""","""","""","""",2022-01-22 22:21:24,98.41.189.27,"Mozilla/5.0 (Macintosh; Intel Mac OS X 10_13_6) AppleWebKit/537.36 (KHTML, like Gecko) Chrome/96.0.4664.55 Safari/537.36",Macintosh,Chrome,96.0.4664.55,OS X,10_13_6,42dc06cf6f210f01c904868893d507e0
1,1,"""","""","""","""","""",html-keyboard-response,24,130600,0.0-11.0-0.3,86134,null,"<div class=""container-debug"" style=""background-color:gray;height:525px;width:700px""><div style=""font-size:60px;color:white;text-align:center;vertical-align:middle;line-height:525px;"">+</div></div>",null,"""","""","""","""","""","""","""","""","""","""","""",2022-01-22 22:21:24,98.41.189.27,"Mozilla/5.0 (Macintosh; Intel Mac OS X 10_13_6) AppleWebKit/537.36 (KHTML, like Gecko) Chrome/96.0.4664.55 Safari/537.36",Macintosh,Chrome,96.0.4664.55,OS X,10_13_6,42dc06cf6f210f01c904868893d507e0
1,1,"""","""","""","""","""",cb-flicker,25,132455,0.0-11.0-1.3,86134,NaN,"""","""",615.8628571428571,519.3142857142857,true,1854.0999999046326,131926.40000009537,131927,"""",target_campsite.png,target_campsite_HighSal.png,240,80,2022-01-22 22:21:24,98.41.189.27,"Mozilla/5.0 (Macintosh; Intel Mac OS X 10_13_6) AppleWebKit/537.36 (KHTML, like Gecko) Chrome/96.0.4664.55 Safari/537.36",Macintosh,Chrome,96.0.4664.55,OS X,10_13_6,42dc06cf6f210f01c904868893d507e0
1,1,"""","""","""","""","""",html-button-response,26,134666,0.0-11.0-2.3,86134,2210.100000143051,<h3>Correct!</h3>,0,"""","""","""","""","""","""","""","""","""","""","""",2022-01-22 22:21:24,98.41.189.27,"Mozilla/5.0 (Macintosh; Intel Mac OS X 10_13_6) AppleWebKit/537.36 (KHTML, like Gecko) Chrome/96.0.4664.55 Safari/537.36",Macintosh,Chrome,96.0.4664.55,OS X,10_13_6,42dc06cf6f210f01c904868893d507e0
1,1,"""","""","""","""","""",html-keyboard-response,27,136672,0.0-11.0-0.4,86134,null,"<div class=""container-debug"" style=""background-color:gray;height:525px;width:700px""><div style=""font-size:60px;color:white;text-align:center;vertical-align:middle;line-height:525px;"">+</div></div>",null,"""","""","""","""","""","""","""","""","""","""","""",2022-01-22 22:21:24,98.41.189.27,"Mozilla/5.0 (Macintosh; Intel Mac OS X 10_13_6) AppleWebKit/537.36 (KHTML, like Gecko) Chrome/96.0.4664.55 Safari/537.36",Macintosh,Chrome,96.0.4664.55,OS X,10_13_6,42dc06cf6f210f01c904868893d507e0
1,1,"""","""","""","""","""",cb-flicker,28,138456,0.0-11.0-1.4,86134,NaN,"""","""",396.4342857142857,516.3885714285715,true,1782.7999999523163,137998.90000009537,137999.70000004768,"""",target_library.png,target_library_HighMean.png,240,80,2022-01-22 22:21:24,98.41.189.27,"Mozilla/5.0 (Macintosh; Intel Mac OS X 10_13_6) AppleWebKit/537.36 (KHTML, like Gecko) Chrome/96.0.4664.55 Safari/537.36",Macintosh,Chrome,96.0.4664.55,OS X,10_13_6,42dc06cf6f210f01c904868893d507e0
1,1,"""","""","""","""","""",html-button-response,29,139761,0.0-11.0-2.4,86134,1304.5999999046326,<h3>Correct!</h3>,0,"""","""","""","""","""","""","""","""","""","""","""",2022-01-22 22:21:24,98.41.189.27,"Mozilla/5.0 (Macintosh; Intel Mac OS X 10_13_6) AppleWebKit/537.36 (KHTML, like Gecko) Chrome/96.0.4664.55 Safari/537.36",Macintosh,Chrome,96.0.4664.55,OS X,10_13_6,42dc06cf6f210f01c904868893d507e0
1,1,"""","""","""","""","""",html-keyboard-response,30,141763,0.0-11.0-0.5,86134,null,"<div class=""container-debug"" style=""background-color:gray;height:525px;width:700px""><div style=""font-size:60px;color:white;text-align:center;vertical-align:middle;line-height:525px;"">+</div></div>",null,"""","""","""","""","""","""","""","""","""","""","""",2022-01-22 22:21:24,98.41.189.27,"Mozilla/5.0 (Macintosh; Intel Mac OS X 10_13_6) AppleWebKit/537.36 (KHTML, like Gecko) Chrome/96.0.4664.55 Safari/537.36",Macintosh,Chrome,96.0.4664.55,OS X,10_13_6,42dc06cf6f210f01c904868893d507e0
1,1,"""","""","""","""","""",cb-flicker,31,144063,0.0-11.0-1.5,86134,NaN,"""","""",735.8171428571428,314.51428571428573,true,2297,143091.60000014305,143092.5,"""",target_fishingvillage.png,target_fishingvillage_HighMean.png,240,80,2022-01-22 22:21:24,98.41.189.27,"Mozilla/5.0 (Macintosh; Intel Mac OS X 10_13_6) AppleWebKit/537.36 (KHTML, like Gecko) Chrome/96.0.4664.55 Safari/537.36",Macintosh,Chrome,96.0.4664.55,OS X,10_13_6,42dc06cf6f210f01c904868893d507e0
1,1,"""","""","""","""","""",html-button-response,32,145721,0.0-11.0-2.5,86134,1656.8999998569489,<h3>Correct!</h3>,0,"""","""","""","""","""","""","""","""","""","""","""",2022-01-22 22:21:24,98.41.189.27,"Mozilla/5.0 (Macintosh; Intel Mac OS X 10_13_6) AppleWebKit/537.36 (KHTML, like Gecko) Chrome/96.0.4664.55 Safari/537.36",Macintosh,Chrome,96.0.4664.55,OS X,10_13_6,42dc06cf6f210f01c904868893d507e0
1,1,"""","""","""","""","""",html-keyboard-response,33,147725,0.0-11.0-0.6,86134,null,"<div class=""container-debug"" style=""background-color:gray;height:525px;width:700px""><div style=""font-size:60px;color:white;text-align:center;vertical-align:middle;line-height:525px;"">+</div></div>",null,"""","""","""","""","""","""","""","""","""","""","""",2022-01-22 22:21:24,98.41.189.27,"Mozilla/5.0 (Macintosh; Intel Mac OS X 10_13_6) AppleWebKit/537.36 (KHTML, like Gecko) Chrome/96.0.4664.55 Safari/537.36",Macintosh,Chrome,96.0.4664.55,OS X,10_13_6,42dc06cf6f210f01c904868893d507e0
1,1,"""","""","""","""","""",cb-flicker,34,149381,0.0-11.0-1.6,86134,NaN,"""","""",460.8,428.6171428571429,false,1653.2000000476837,149053,149053.90000009537,"""",target_forrest.png,target_forrest_HighMean.png,240,80,2022-01-22 22:21:24,98.41.189.27,"Mozilla/5.0 (Macintosh; Intel Mac OS X 10_13_6) AppleWebKit/537.36 (KHTML, like Gecko) Chrome/96.0.4664.55 Safari/537.36",Macintosh,Chrome,96.0.4664.55,OS X,10_13_6,42dc06cf6f210f01c904868893d507e0
1,1,"""","""","""","""","""",html-button-response,35,150402,0.0-11.0-2.6,86134,1020.1000001430511,"<h3>Sorry, that's not where the distortion was.</h3>",0,"""","""","""","""","""","""","""","""","""","""","""",2022-01-22 22:21:24,98.41.189.27,"Mozilla/5.0 (Macintosh; Intel Mac OS X 10_13_6) AppleWebKit/537.36 (KHTML, like Gecko) Chrome/96.0.4664.55 Safari/537.36",Macintosh,Chrome,96.0.4664.55,OS X,10_13_6,42dc06cf6f210f01c904868893d507e0
1,1,"""","""","""","""","""",html-keyboard-response,36,152404,0.0-11.0-0.7,86134,null,"<div class=""container-debug"" style=""background-color:gray;height:525px;width:700px""><div style=""font-size:60px;color:white;text-align:center;vertical-align:middle;line-height:525px;"">+</div></div>",null,"""","""","""","""","""","""","""","""","""","""","""",2022-01-22 22:21:24,98.41.189.27,"Mozilla/5.0 (Macintosh; Intel Mac OS X 10_13_6) AppleWebKit/537.36 (KHTML, like Gecko) Chrome/96.0.4664.55 Safari/537.36",Macintosh,Chrome,96.0.4664.55,OS X,10_13_6,42dc06cf6f210f01c904868893d507e0
1,1,"""","""","""","""","""",cb-flicker,37,154874,0.0-11.0-1.7,86134,NaN,"""","""",313.0514285714286,283.7942857142857,true,2468.9000000953674,153730.5,153731.20000004768,"""",target_backyard.png,target_backyard_HighSal.png,240,80,2022-01-22 22:21:24,98.41.189.27,"Mozilla/5.0 (Macintosh; Intel Mac OS X 10_13_6) AppleWebKit/537.36 (KHTML, like Gecko) Chrome/96.0.4664.55 Safari/537.36",Macintosh,Chrome,96.0.4664.55,OS X,10_13_6,42dc06cf6f210f01c904868893d507e0
1,1,"""","""","""","""","""",html-button-response,38,156115,0.0-11.0-2.7,86134,1238.9000000953674,<h3>Correct!</h3>,0,"""","""","""","""","""","""","""","""","""","""","""",2022-01-22 22:21:24,98.41.189.27,"Mozilla/5.0 (Macintosh; Intel Mac OS X 10_13_6) AppleWebKit/537.36 (KHTML, like Gecko) Chrome/96.0.4664.55 Safari/537.36",Macintosh,Chrome,96.0.4664.55,OS X,10_13_6,42dc06cf6f210f01c904868893d507e0
1,1,"""","""","""","""","""",html-keyboard-response,39,158116,0.0-11.0-0.8,86134,null,"<div class=""container-debug"" style=""background-color:gray;height:525px;width:700px""><div style=""font-size:60px;color:white;text-align:center;vertical-align:middle;line-height:525px;"">+</div></div>",null,"""","""","""","""","""","""","""","""","""","""","""",2022-01-22 22:21:24,98.41.189.27,"Mozilla/5.0 (Macintosh; Intel Mac OS X 10_13_6) AppleWebKit/537.36 (KHTML, like Gecko) Chrome/96.0.4664.55 Safari/537.36",Macintosh,Chrome,96.0.4664.55,OS X,10_13_6,42dc06cf6f210f01c904868893d507e0
1,1,"""","""","""","""","""",cb-flicker,40,162764,0.0-11.0-1.8,86134,NaN,"""","""",368.64,190.17142857142858,true,4646.799999952316,159442.5,159443.20000004768,"""",target_sewingroom.png,target_sewingroom_HighMean.png,240,80,2022-01-22 22:21:24,98.41.189.27,"Mozilla/5.0 (Macintosh; Intel Mac OS X 10_13_6) AppleWebKit/537.36 (KHTML, like Gecko) Chrome/96.0.4664.55 Safari/537.36",Macintosh,Chrome,96.0.4664.55,OS X,10_13_6,42dc06cf6f210f01c904868893d507e0
1,1,"""","""","""","""","""",html-button-response,41,164177,0.0-11.0-2.8,86134,1410.5999999046326,<h3>Correct!</h3>,0,"""","""","""","""","""","""","""","""","""","""","""",2022-01-22 22:21:24,98.41.189.27,"Mozilla/5.0 (Macintosh; Intel Mac OS X 10_13_6) AppleWebKit/537.36 (KHTML, like Gecko) Chrome/96.0.4664.55 Safari/537.36",Macintosh,Chrome,96.0.4664.55,OS X,10_13_6,42dc06cf6f210f01c904868893d507e0
1,1,"""","""","""","""","""",html-keyboard-response,42,166179,0.0-11.0-0.9,86134,null,"<div class=""container-debug"" style=""background-color:gray;height:525px;width:700px""><div style=""font-size:60px;color:white;text-align:center;vertical-align:middle;line-height:525px;"">+</div></div>",null,"""","""","""","""","""","""","""","""","""","""","""",2022-01-22 22:21:24,98.41.189.27,"Mozilla/5.0 (Macintosh; Intel Mac OS X 10_13_6) AppleWebKit/537.36 (KHTML, like Gecko) Chrome/96.0.4664.55 Safari/537.36",Macintosh,Chrome,96.0.4664.55,OS X,10_13_6,42dc06cf6f210f01c904868893d507e0
1,1,"""","""","""","""","""",cb-flicker,43,174179,0.0-11.0-1.9,86134,NaN,"""","""",709.4857142857143,441.78285714285715,true,7999.100000143051,167505.5,167506.20000004768,"""",target_fireworks.png,target_fireworks_HighMean.png,240,80,2022-01-22 22:21:24,98.41.189.27,"Mozilla/5.0 (Macintosh; Intel Mac OS X 10_13_6) AppleWebKit/537.36 (KHTML, like Gecko) Chrome/96.0.4664.55 Safari/537.36",Macintosh,Chrome,96.0.4664.55,OS X,10_13_6,42dc06cf6f210f01c904868893d507e0
1,1,"""","""","""","""","""",html-button-response,44,175354,0.0-11.0-2.9,86134,1172.8999998569489,<h3>Correct!</h3>,0,"""","""","""","""","""","""","""","""","""","""","""",2022-01-22 22:21:24,98.41.189.27,"Mozilla/5.0 (Macintosh; Intel Mac OS X 10_13_6) AppleWebKit/537.36 (KHTML, like Gecko) Chrome/96.0.4664.55 Safari/537.36",Macintosh,Chrome,96.0.4664.55,OS X,10_13_6,42dc06cf6f210f01c904868893d507e0
1,1,"""","""","""","""","""",html-keyboard-response,45,177359,0.0-11.0-0.10,86134,null,"<div class=""container-debug"" style=""background-color:gray;height:525px;width:700px""><div style=""font-size:60px;color:white;text-align:center;vertical-align:middle;line-height:525px;"">+</div></div>",null,"""","""","""","""","""","""","""","""","""","""","""",2022-01-22 22:21:24,98.41.189.27,"Mozilla/5.0 (Macintosh; Intel Mac OS X 10_13_6) AppleWebKit/537.36 (KHTML, like Gecko) Chrome/96.0.4664.55 Safari/537.36",Macintosh,Chrome,96.0.4664.55,OS X,10_13_6,42dc06cf6f210f01c904868893d507e0
1,1,"""","""","""","""","""",cb-flicker,46,179106,0.0-11.0-1.10,86134,NaN,"""","""",210.65142857142857,378.88,true,1745.9000000953674,178685.79999995232,178686.40000009537,"""",target_dock.png,target_dock_HighSal.png,240,80,2022-01-22 22:21:24,98.41.189.27,"Mozilla/5.0 (Macintosh; Intel Mac OS X 10_13_6) AppleWebKit/537.36 (KHTML, like Gecko) Chrome/96.0.4664.55 Safari/537.36",Macintosh,Chrome,96.0.4664.55,OS X,10_13_6,42dc06cf6f210f01c904868893d507e0
1,1,"""","""","""","""","""",html-button-response,47,180355,0.0-11.0-2.10,86134,1247.3999998569489,<h3>Correct!</h3>,0,"""","""","""","""","""","""","""","""","""","""","""",2022-01-22 22:21:24,98.41.189.27,"Mozilla/5.0 (Macintosh; Intel Mac OS X 10_13_6) AppleWebKit/537.36 (KHTML, like Gecko) Chrome/96.0.4664.55 Safari/537.36",Macintosh,Chrome,96.0.4664.55,OS X,10_13_6,42dc06cf6f210f01c904868893d507e0
1,1,"""","""","""","""","""",html-keyboard-response,48,182358,0.0-11.0-0.11,86134,null,"<div class=""container-debug"" style=""background-color:gray;height:525px;width:700px""><div style=""font-size:60px;color:white;text-align:center;vertical-align:middle;line-height:525px;"">+</div></div>",null,"""","""","""","""","""","""","""","""","""","""","""",2022-01-22 22:21:24,98.41.189.27,"Mozilla/5.0 (Macintosh; Intel Mac OS X 10_13_6) AppleWebKit/537.36 (KHTML, like Gecko) Chrome/96.0.4664.55 Safari/537.36",Macintosh,Chrome,96.0.4664.55,OS X,10_13_6,42dc06cf6f210f01c904868893d507e0
1,1,"""","""","""","""","""",cb-flicker,49,184148,0.0-11.0-1.11,86134,NaN,"""","""",449.09714285714284,207.72571428571428,true,1789,183684.10000014305,183684.79999995232,"""",target_constructionsite.png,target_constructionsite_HighMean.png,240,80,2022-01-22 22:21:24,98.41.189.27,"Mozilla/5.0 (Macintosh; Intel Mac OS X 10_13_6) AppleWebKit/537.36 (KHTML, like Gecko) Chrome/96.0.4664.55 Safari/537.36",Macintosh,Chrome,96.0.4664.55,OS X,10_13_6,42dc06cf6f210f01c904868893d507e0
1,1,"""","""","""","""","""",html-button-response,50,185437,0.0-11.0-2.11,86134,1288.2999999523163,<h3>Correct!</h3>,0,"""","""","""","""","""","""","""","""","""","""","""",2022-01-22 22:21:24,98.41.189.27,"Mozilla/5.0 (Macintosh; Intel Mac OS X 10_13_6) AppleWebKit/537.36 (KHTML, like Gecko) Chrome/96.0.4664.55 Safari/537.36",Macintosh,Chrome,96.0.4664.55,OS X,10_13_6,42dc06cf6f210f01c904868893d507e0
1,1,"""","""","""","""","""",html-keyboard-response,51,187443,0.0-11.0-0.12,86134,null,"<div class=""container-debug"" style=""background-color:gray;height:525px;width:700px""><div style=""font-size:60px;color:white;text-align:center;vertical-align:middle;line-height:525px;"">+</div></div>",null,"""","""","""","""","""","""","""","""","""","""","""",2022-01-22 22:21:24,98.41.189.27,"Mozilla/5.0 (Macintosh; Intel Mac OS X 10_13_6) AppleWebKit/537.36 (KHTML, like Gecko) Chrome/96.0.4664.55 Safari/537.36",Macintosh,Chrome,96.0.4664.55,OS X,10_13_6,42dc06cf6f210f01c904868893d507e0
1,1,"""","""","""","""","""",cb-flicker,52,189979,0.0-11.0-1.12,86134,NaN,"""","""",795.7942857142857,289.6457142857143,true,2533.100000143051,188770.79999995232,188771.60000014305,"""",target_hardwarestore.png,target_hardwarestore_HighSal.png,240,80,2022-01-22 22:21:24,98.41.189.27,"Mozilla/5.0 (Macintosh; Intel Mac OS X 10_13_6) AppleWebKit/537.36 (KHTML, like Gecko) Chrome/96.0.4664.55 Safari/537.36",Macintosh,Chrome,96.0.4664.55,OS X,10_13_6,42dc06cf6f210f01c904868893d507e0
1,1,"""","""","""","""","""",html-button-response,53,190950,0.0-11.0-2.12,86134,970,<h3>Correct!</h3>,0,"""","""","""","""","""","""","""","""","""","""","""",2022-01-22 22:21:24,98.41.189.27,"Mozilla/5.0 (Macintosh; Intel Mac OS X 10_13_6) AppleWebKit/537.36 (KHTML, like Gecko) Chrome/96.0.4664.55 Safari/537.36",Macintosh,Chrome,96.0.4664.55,OS X,10_13_6,42dc06cf6f210f01c904868893d507e0
1,1,"""","""","""","""","""",html-keyboard-response,54,192952,0.0-11.0-0.13,86134,null,"<div class=""container-debug"" style=""background-color:gray;height:525px;width:700px""><div style=""font-size:60px;color:white;text-align:center;vertical-align:middle;line-height:525px;"">+</div></div>",null,"""","""","""","""","""","""","""","""","""","""","""",2022-01-22 22:21:24,98.41.189.27,"Mozilla/5.0 (Macintosh; Intel Mac OS X 10_13_6) AppleWebKit/537.36 (KHTML, like Gecko) Chrome/96.0.4664.55 Safari/537.36",Macintosh,Chrome,96.0.4664.55,OS X,10_13_6,42dc06cf6f210f01c904868893d507e0
1,1,"""","""","""","""","""",cb-flicker,55,194807,0.0-11.0-1.13,86134,NaN,"""","""",512,516.3885714285715,true,1852.7000000476837,194279.40000009537,194280.29999995232,"""",target_highway.png,target_highway_HighMean.png,240,80,2022-01-22 22:21:24,98.41.189.27,"Mozilla/5.0 (Macintosh; Intel Mac OS X 10_13_6) AppleWebKit/537.36 (KHTML, like Gecko) Chrome/96.0.4664.55 Safari/537.36",Macintosh,Chrome,96.0.4664.55,OS X,10_13_6,42dc06cf6f210f01c904868893d507e0
1,1,"""","""","""","""","""",html-button-response,56,195721,0.0-11.0-2.13,86134,913,<h3>Correct!</h3>,0,"""","""","""","""","""","""","""","""","""","""","""",2022-01-22 22:21:24,98.41.189.27,"Mozilla/5.0 (Macintosh; Intel Mac OS X 10_13_6) AppleWebKit/537.36 (KHTML, like Gecko) Chrome/96.0.4664.55 Safari/537.36",Macintosh,Chrome,96.0.4664.55,OS X,10_13_6,42dc06cf6f210f01c904868893d507e0
1,1,"""","""","""","""","""",html-keyboard-response,57,197724,0.0-11.0-0.14,86134,null,"<div class=""container-debug"" style=""background-color:gray;height:525px;width:700px""><div style=""font-size:60px;color:white;text-align:center;vertical-align:middle;line-height:525px;"">+</div></div>",null,"""","""","""","""","""","""","""","""","""","""","""",2022-01-22 22:21:24,98.41.189.27,"Mozilla/5.0 (Macintosh; Intel Mac OS X 10_13_6) AppleWebKit/537.36 (KHTML, like Gecko) Chrome/96.0.4664.55 Safari/537.36",Macintosh,Chrome,96.0.4664.55,OS X,10_13_6,42dc06cf6f210f01c904868893d507e0
1,1,"""","""","""","""","""",cb-flicker,58,199794,0.0-11.0-1.14,86134,NaN,"""","""",450.56,512,true,2069.5,199049.60000014305,199050.20000004768,"""",target_bathroom.png,target_bathroom_HighMean.png,240,80,2022-01-22 22:21:24,98.41.189.27,"Mozilla/5.0 (Macintosh; Intel Mac OS X 10_13_6) AppleWebKit/537.36 (KHTML, like Gecko) Chrome/96.0.4664.55 Safari/537.36",Macintosh,Chrome,96.0.4664.55,OS X,10_13_6,42dc06cf6f210f01c904868893d507e0
1,1,"""","""","""","""","""",html-button-response,59,200969,0.0-11.0-2.14,86134,1172.7999999523163,<h3>Correct!</h3>,0,"""","""","""","""","""","""","""","""","""","""","""",2022-01-22 22:21:24,98.41.189.27,"Mozilla/5.0 (Macintosh; Intel Mac OS X 10_13_6) AppleWebKit/537.36 (KHTML, like Gecko) Chrome/96.0.4664.55 Safari/537.36",Macintosh,Chrome,96.0.4664.55,OS X,10_13_6,42dc06cf6f210f01c904868893d507e0
1,1,"""","""","""","""","""",html-keyboard-response,60,202971,0.0-11.0-0.15,86134,null,"<div class=""container-debug"" style=""background-color:gray;height:525px;width:700px""><div style=""font-size:60px;color:white;text-align:center;vertical-align:middle;line-height:525px;"">+</div></div>",null,"""","""","""","""","""","""","""","""","""","""","""",2022-01-22 22:21:24,98.41.189.27,"Mozilla/5.0 (Macintosh; Intel Mac OS X 10_13_6) AppleWebKit/537.36 (KHTML, like Gecko) Chrome/96.0.4664.55 Safari/537.36",Macintosh,Chrome,96.0.4664.55,OS X,10_13_6,42dc06cf6f210f01c904868893d507e0
1,1,"""","""","""","""","""",cb-flicker,61,204607,0.0-11.0-1.15,86134,NaN,"""","""",301.3485714285714,453.48571428571427,true,1634.2999999523163,204297.40000009537,204298.10000014305,"""",target_city.png,target_city_HighMean.png,240,80,2022-01-22 22:21:24,98.41.189.27,"Mozilla/5.0 (Macintosh; Intel Mac OS X 10_13_6) AppleWebKit/537.36 (KHTML, like Gecko) Chrome/96.0.4664.55 Safari/537.36",Macintosh,Chrome,96.0.4664.55,OS X,10_13_6,42dc06cf6f210f01c904868893d507e0
1,1,"""","""","""","""","""",html-button-response,62,205513,0.0-11.0-2.15,86134,905.5,<h3>Correct!</h3>,0,"""","""","""","""","""","""","""","""","""","""","""",2022-01-22 22:21:24,98.41.189.27,"Mozilla/5.0 (Macintosh; Intel Mac OS X 10_13_6) AppleWebKit/537.36 (KHTML, like Gecko) Chrome/96.0.4664.55 Safari/537.36",Macintosh,Chrome,96.0.4664.55,OS X,10_13_6,42dc06cf6f210f01c904868893d507e0
1,1,"""","""","""","""","""",html-keyboard-response,63,207517,0.0-11.0-0.16,86134,null,"<div class=""container-debug"" style=""background-color:gray;height:525px;width:700px""><div style=""font-size:60px;color:white;text-align:center;vertical-align:middle;line-height:525px;"">+</div></div>",null,"""","""","""","""","""","""","""","""","""","""","""",2022-01-22 22:21:24,98.41.189.27,"Mozilla/5.0 (Macintosh; Intel Mac OS X 10_13_6) AppleWebKit/537.36 (KHTML, like Gecko) Chrome/96.0.4664.55 Safari/537.36",Macintosh,Chrome,96.0.4664.55,OS X,10_13_6,42dc06cf6f210f01c904868893d507e0
1,1,"""","""","""","""","""",cb-flicker,64,210547,0.0-11.0-1.16,86134,NaN,"""","""",729.9657142857143,392.04571428571427,true,3029.399999856949,208842.90000009537,208843.60000014305,"""",target_mediaroom.png,target_mediaroom_HighMean.png,240,80,2022-01-22 22:21:24,98.41.189.27,"Mozilla/5.0 (Macintosh; Intel Mac OS X 10_13_6) AppleWebKit/537.36 (KHTML, like Gecko) Chrome/96.0.4664.55 Safari/537.36",Macintosh,Chrome,96.0.4664.55,OS X,10_13_6,42dc06cf6f210f01c904868893d507e0
1,1,"""","""","""","""","""",html-button-response,65,211429,0.0-11.0-2.16,86134,880.5999999046326,<h3>Correct!</h3>,0,"""","""","""","""","""","""","""","""","""","""","""",2022-01-22 22:21:24,98.41.189.27,"Mozilla/5.0 (Macintosh; Intel Mac OS X 10_13_6) AppleWebKit/537.36 (KHTML, like Gecko) Chrome/96.0.4664.55 Safari/537.36",Macintosh,Chrome,96.0.4664.55,OS X,10_13_6,42dc06cf6f210f01c904868893d507e0
1,1,"""","""","""","""","""",html-keyboard-response,66,213432,0.0-11.0-0.17,86134,null,"<div class=""container-debug"" style=""background-color:gray;height:525px;width:700px""><div style=""font-size:60px;color:white;text-align:center;vertical-align:middle;line-height:525px;"">+</div></div>",null,"""","""","""","""","""","""","""","""","""","""","""",2022-01-22 22:21:24,98.41.189.27,"Mozilla/5.0 (Macintosh; Intel Mac OS X 10_13_6) AppleWebKit/537.36 (KHTML, like Gecko) Chrome/96.0.4664.55 Safari/537.36",Macintosh,Chrome,96.0.4664.55,OS X,10_13_6,42dc06cf6f210f01c904868893d507e0
1,1,"""","""","""","""","""",cb-flicker,67,215301,0.0-11.0-1.17,86134,NaN,"""","""",555.8857142857142,200.41142857142856,true,1866.1000001430511,214759.79999995232,214760.5,"""",target_heliport.png,target_heliport_HighMean.png,240,80,2022-01-22 22:21:24,98.41.189.27,"Mozilla/5.0 (Macintosh; Intel Mac OS X 10_13_6) AppleWebKit/537.36 (KHTML, like Gecko) Chrome/96.0.4664.55 Safari/537.36",Macintosh,Chrome,96.0.4664.55,OS X,10_13_6,42dc06cf6f210f01c904868893d507e0
1,1,"""","""","""","""","""",html-button-response,68,216468,0.0-11.0-2.17,86134,1166.2999999523163,<h3>Correct!</h3>,0,"""","""","""","""","""","""","""","""","""","""","""",2022-01-22 22:21:24,98.41.189.27,"Mozilla/5.0 (Macintosh; Intel Mac OS X 10_13_6) AppleWebKit/537.36 (KHTML, like Gecko) Chrome/96.0.4664.55 Safari/537.36",Macintosh,Chrome,96.0.4664.55,OS X,10_13_6,42dc06cf6f210f01c904868893d507e0
1,1,"""","""","""","""","""",html-keyboard-response,69,218471,0.0-11.0-0.18,86134,null,"<div class=""container-debug"" style=""background-color:gray;height:525px;width:700px""><div style=""font-size:60px;color:white;text-align:center;vertical-align:middle;line-height:525px;"">+</div></div>",null,"""","""","""","""","""","""","""","""","""","""","""",2022-01-22 22:21:24,98.41.189.27,"Mozilla/5.0 (Macintosh; Intel Mac OS X 10_13_6) AppleWebKit/537.36 (KHTML, like Gecko) Chrome/96.0.4664.55 Safari/537.36",Macintosh,Chrome,96.0.4664.55,OS X,10_13_6,42dc06cf6f210f01c904868893d507e0
1,1,"""","""","""","""","""",cb-flicker,70,221169,0.0-11.0-1.18,86134,NaN,"""","""",835.2914285714286,466.6514285714286,true,2697.399999856949,219796.60000014305,219797.29999995232,"""",target_patio.png,target_patio_HighSal.png,240,80,2022-01-22 22:21:24,98.41.189.27,"Mozilla/5.0 (Macintosh; Intel Mac OS X 10_13_6) AppleWebKit/537.36 (KHTML, like Gecko) Chrome/96.0.4664.55 Safari/537.36",Macintosh,Chrome,96.0.4664.55,OS X,10_13_6,42dc06cf6f210f01c904868893d507e0
1,1,"""","""","""","""","""",html-button-response,71,221969,0.0-11.0-2.18,86134,796.0999999046326,<h3>Correct!</h3>,0,"""","""","""","""","""","""","""","""","""","""","""",2022-01-22 22:21:24,98.41.189.27,"Mozilla/5.0 (Macintosh; Intel Mac OS X 10_13_6) AppleWebKit/537.36 (KHTML, like Gecko) Chrome/96.0.4664.55 Safari/537.36",Macintosh,Chrome,96.0.4664.55,OS X,10_13_6,42dc06cf6f210f01c904868893d507e0
1,1,"""","""","""","""","""",html-keyboard-response,72,223974,0.0-11.0-0.19,86134,null,"<div class=""container-debug"" style=""background-color:gray;height:525px;width:700px""><div style=""font-size:60px;color:white;text-align:center;vertical-align:middle;line-height:525px;"">+</div></div>",null,"""","""","""","""","""","""","""","""","""","""","""",2022-01-22 22:21:24,98.41.189.27,"Mozilla/5.0 (Macintosh; Intel Mac OS X 10_13_6) AppleWebKit/537.36 (KHTML, like Gecko) Chrome/96.0.4664.55 Safari/537.36",Macintosh,Chrome,96.0.4664.55,OS X,10_13_6,42dc06cf6f210f01c904868893d507e0
1,1,"""","""","""","""","""",cb-flicker,73,225677,0.0-11.0-1.19,86134,NaN,"""","""",672.9142857142857,302.81142857142856,true,1702.4000000953674,225299.79999995232,225300.5,"""",target_subway.png,target_subway_HighMean.png,240,80,2022-01-22 22:21:24,98.41.189.27,"Mozilla/5.0 (Macintosh; Intel Mac OS X 10_13_6) AppleWebKit/537.36 (KHTML, like Gecko) Chrome/96.0.4664.55 Safari/537.36",Macintosh,Chrome,96.0.4664.55,OS X,10_13_6,42dc06cf6f210f01c904868893d507e0
1,1,"""","""","""","""","""",html-button-response,74,226421,0.0-11.0-2.19,86134,742.5,<h3>Correct!</h3>,0,"""","""","""","""","""","""","""","""","""","""","""",2022-01-22 22:21:24,98.41.189.27,"Mozilla/5.0 (Macintosh; Intel Mac OS X 10_13_6) AppleWebKit/537.36 (KHTML, like Gecko) Chrome/96.0.4664.55 Safari/537.36",Macintosh,Chrome,96.0.4664.55,OS X,10_13_6,42dc06cf6f210f01c904868893d507e0
1,1,"""","""","""","""","""",html-keyboard-response,75,228427,0.0-11.0-0.20,86134,null,"<div class=""container-debug"" style=""background-color:gray;height:525px;width:700px""><div style=""font-size:60px;color:white;text-align:center;vertical-align:middle;line-height:525px;"">+</div></div>",null,"""","""","""","""","""","""","""","""","""","""","""",2022-01-22 22:21:24,98.41.189.27,"Mozilla/5.0 (Macintosh; Intel Mac OS X 10_13_6) AppleWebKit/537.36 (KHTML, like Gecko) Chrome/96.0.4664.55 Safari/537.36",Macintosh,Chrome,96.0.4664.55,OS X,10_13_6,42dc06cf6f210f01c904868893d507e0
1,1,"""","""","""","""","""",cb-flicker,76,232582,0.0-11.0-1.20,86134,NaN,"""","""",712.4114285714286,313.0514285714286,true,4151.900000095367,229754.5,229755.29999995232,"""",target_garden.png,target_garden_HighMean.png,240,80,2022-01-22 22:21:24,98.41.189.27,"Mozilla/5.0 (Macintosh; Intel Mac OS X 10_13_6) AppleWebKit/537.36 (KHTML, like Gecko) Chrome/96.0.4664.55 Safari/537.36",Macintosh,Chrome,96.0.4664.55,OS X,10_13_6,42dc06cf6f210f01c904868893d507e0
1,1,"""","""","""","""","""",html-button-response,77,233496,0.0-11.0-2.20,86134,913,<h3>Correct!</h3>,0,"""","""","""","""","""","""","""","""","""","""","""",2022-01-22 22:21:24,98.41.189.27,"Mozilla/5.0 (Macintosh; Intel Mac OS X 10_13_6) AppleWebKit/537.36 (KHTML, like Gecko) Chrome/96.0.4664.55 Safari/537.36",Macintosh,Chrome,96.0.4664.55,OS X,10_13_6,42dc06cf6f210f01c904868893d507e0
1,1,"""","""","""","""","""",html-keyboard-response,78,235497,0.0-11.0-0.21,86134,null,"<div class=""container-debug"" style=""background-color:gray;height:525px;width:700px""><div style=""font-size:60px;color:white;text-align:center;vertical-align:middle;line-height:525px;"">+</div></div>",null,"""","""","""","""","""","""","""","""","""","""","""",2022-01-22 22:21:24,98.41.189.27,"Mozilla/5.0 (Macintosh; Intel Mac OS X 10_13_6) AppleWebKit/537.36 (KHTML, like Gecko) Chrome/96.0.4664.55 Safari/537.36",Macintosh,Chrome,96.0.4664.55,OS X,10_13_6,42dc06cf6f210f01c904868893d507e0
1,1,"""","""","""","""","""",cb-flicker,79,237271,0.0-11.0-1.21,86134,NaN,"""","""",289.6457142857143,539.7942857142857,true,1770,236825.90000009537,236826.5,"""",target_parkinglot.png,target_parkinglot_HighSal.png,240,80,2022-01-22 22:21:24,98.41.189.27,"Mozilla/5.0 (Macintosh; Intel Mac OS X 10_13_6) AppleWebKit/537.36 (KHTML, like Gecko) Chrome/96.0.4664.55 Safari/537.36",Macintosh,Chrome,96.0.4664.55,OS X,10_13_6,42dc06cf6f210f01c904868893d507e0
1,1,"""","""","""","""","""",html-button-response,80,238022,0.0-11.0-2.21,86134,749.5,<h3>Correct!</h3>,0,"""","""","""","""","""","""","""","""","""","""","""",2022-01-22 22:21:24,98.41.189.27,"Mozilla/5.0 (Macintosh; Intel Mac OS X 10_13_6) AppleWebKit/537.36 (KHTML, like Gecko) Chrome/96.0.4664.55 Safari/537.36",Macintosh,Chrome,96.0.4664.55,OS X,10_13_6,42dc06cf6f210f01c904868893d507e0
1,1,"""","""","""","""","""",html-keyboard-response,81,240025,0.0-11.0-0.22,86134,null,"<div class=""container-debug"" style=""background-color:gray;height:525px;width:700px""><div style=""font-size:60px;color:white;text-align:center;vertical-align:middle;line-height:525px;"">+</div></div>",null,"""","""","""","""","""","""","""","""","""","""","""",2022-01-22 22:21:24,98.41.189.27,"Mozilla/5.0 (Macintosh; Intel Mac OS X 10_13_6) AppleWebKit/537.36 (KHTML, like Gecko) Chrome/96.0.4664.55 Safari/537.36",Macintosh,Chrome,96.0.4664.55,OS X,10_13_6,42dc06cf6f210f01c904868893d507e0
1,1,"""","""","""","""","""",cb-flicker,82,241567,0.0-11.0-1.22,86134,NaN,"""","""",313.0514285714286,409.6,true,1540.6000001430511,241350.79999995232,241351.40000009537,"""",target_field.png,target_field_HighSal.png,240,80,2022-01-22 22:21:24,98.41.189.27,"Mozilla/5.0 (Macintosh; Intel Mac OS X 10_13_6) AppleWebKit/537.36 (KHTML, like Gecko) Chrome/96.0.4664.55 Safari/537.36",Macintosh,Chrome,96.0.4664.55,OS X,10_13_6,42dc06cf6f210f01c904868893d507e0
1,1,"""","""","""","""","""",html-button-response,83,242326,0.0-11.0-2.22,86134,756.5,<h3>Correct!</h3>,0,"""","""","""","""","""","""","""","""","""","""","""",2022-01-22 22:21:24,98.41.189.27,"Mozilla/5.0 (Macintosh; Intel Mac OS X 10_13_6) AppleWebKit/537.36 (KHTML, like Gecko) Chrome/96.0.4664.55 Safari/537.36",Macintosh,Chrome,96.0.4664.55,OS X,10_13_6,42dc06cf6f210f01c904868893d507e0
1,1,"""","""","""","""","""",html-keyboard-response,84,244331,0.0-11.0-0.23,86134,null,"<div class=""container-debug"" style=""background-color:gray;height:525px;width:700px""><div style=""font-size:60px;color:white;text-align:center;vertical-align:middle;line-height:525px;"">+</div></div>",null,"""","""","""","""","""","""","""","""","""","""","""",2022-01-22 22:21:24,98.41.189.27,"Mozilla/5.0 (Macintosh; Intel Mac OS X 10_13_6) AppleWebKit/537.36 (KHTML, like Gecko) Chrome/96.0.4664.55 Safari/537.36",Macintosh,Chrome,96.0.4664.55,OS X,10_13_6,42dc06cf6f210f01c904868893d507e0
1,1,"""","""","""","""","""",cb-flicker,85,246760,0.0-11.0-1.23,86134,NaN,"""","""",712.4114285714286,472.5028571428571,true,2427.4000000953674,245656.70000004768,245657.40000009537,"""",target_bakery.png,target_bakery_HighSal.png,240,80,2022-01-22 22:21:24,98.41.189.27,"Mozilla/5.0 (Macintosh; Intel Mac OS X 10_13_6) AppleWebKit/537.36 (KHTML, like Gecko) Chrome/96.0.4664.55 Safari/537.36",Macintosh,Chrome,96.0.4664.55,OS X,10_13_6,42dc06cf6f210f01c904868893d507e0
1,1,"""","""","""","""","""",html-button-response,86,247518,0.0-11.0-2.23,86134,758.0999999046326,<h3>Correct!</h3>,0,"""","""","""","""","""","""","""","""","""","""","""",2022-01-22 22:21:24,98.41.189.27,"Mozilla/5.0 (Macintosh; Intel Mac OS X 10_13_6) AppleWebKit/537.36 (KHTML, like Gecko) Chrome/96.0.4664.55 Safari/537.36",Macintosh,Chrome,96.0.4664.55,OS X,10_13_6,42dc06cf6f210f01c904868893d507e0
1,1,"""","""","""","""","""",html-keyboard-response,87,249522,0.0-11.0-0.24,86134,null,"<div class=""container-debug"" style=""background-color:gray;height:525px;width:700px""><div style=""font-size:60px;color:white;text-align:center;vertical-align:middle;line-height:525px;"">+</div></div>",null,"""","""","""","""","""","""","""","""","""","""","""",2022-01-22 22:21:24,98.41.189.27,"Mozilla/5.0 (Macintosh; Intel Mac OS X 10_13_6) AppleWebKit/537.36 (KHTML, like Gecko) Chrome/96.0.4664.55 Safari/537.36",Macintosh,Chrome,96.0.4664.55,OS X,10_13_6,42dc06cf6f210f01c904868893d507e0
1,1,"""","""","""","""","""",cb-flicker,88,251488,0.0-11.0-1.24,86134,NaN,"""","""",245.76,510.53714285714284,true,1964.7000000476837,250848,250848.60000014305,"""",target_recordingstudio.png,target_recordingstudio_HighSal.png,240,80,2022-01-22 22:21:24,98.41.189.27,"Mozilla/5.0 (Macintosh; Intel Mac OS X 10_13_6) AppleWebKit/537.36 (KHTML, like Gecko) Chrome/96.0.4664.55 Safari/537.36",Macintosh,Chrome,96.0.4664.55,OS X,10_13_6,42dc06cf6f210f01c904868893d507e0
1,1,"""","""","""","""","""",html-button-response,89,252321,0.0-11.0-2.24,86134,831.5,<h3>Correct!</h3>,0,"""","""","""","""","""","""","""","""","""","""","""",2022-01-22 22:21:24,98.41.189.27,"Mozilla/5.0 (Macintosh; Intel Mac OS X 10_13_6) AppleWebKit/537.36 (KHTML, like Gecko) Chrome/96.0.4664.55 Safari/537.36",Macintosh,Chrome,96.0.4664.55,OS X,10_13_6,42dc06cf6f210f01c904868893d507e0
1,1,"""","""","""","""","""",html-keyboard-response,90,254323,0.0-11.0-0.25,86134,null,"<div class=""container-debug"" style=""background-color:gray;height:525px;width:700px""><div style=""font-size:60px;color:white;text-align:center;vertical-align:middle;line-height:525px;"">+</div></div>",null,"""","""","""","""","""","""","""","""","""","""","""",2022-01-22 22:21:24,98.41.189.27,"Mozilla/5.0 (Macintosh; Intel Mac OS X 10_13_6) AppleWebKit/537.36 (KHTML, like Gecko) Chrome/96.0.4664.55 Safari/537.36",Macintosh,Chrome,96.0.4664.55,OS X,10_13_6,42dc06cf6f210f01c904868893d507e0
1,1,"""","""","""","""","""",cb-flicker,91,256923,0.0-11.0-1.25,86134,NaN,"""","""",620.2514285714286,207.72571428571428,true,2596.899999856949,255650.60000014305,255651.5,"""",target_soccerfield.png,target_soccerfield_HighMean.png,240,80,2022-01-22 22:21:24,98.41.189.27,"Mozilla/5.0 (Macintosh; Intel Mac OS X 10_13_6) AppleWebKit/537.36 (KHTML, like Gecko) Chrome/96.0.4664.55 Safari/537.36",Macintosh,Chrome,96.0.4664.55,OS X,10_13_6,42dc06cf6f210f01c904868893d507e0
1,1,"""","""","""","""","""",html-button-response,92,257837,0.0-11.0-2.25,86134,913.2000000476837,<h3>Correct!</h3>,0,"""","""","""","""","""","""","""","""","""","""","""",2022-01-22 22:21:24,98.41.189.27,"Mozilla/5.0 (Macintosh; Intel Mac OS X 10_13_6) AppleWebKit/537.36 (KHTML, like Gecko) Chrome/96.0.4664.55 Safari/537.36",Macintosh,Chrome,96.0.4664.55,OS X,10_13_6,42dc06cf6f210f01c904868893d507e0
1,1,"""","""","""","""","""",html-keyboard-response,93,259843,0.0-11.0-0.26,86134,null,"<div class=""container-debug"" style=""background-color:gray;height:525px;width:700px""><div style=""font-size:60px;color:white;text-align:center;vertical-align:middle;line-height:525px;"">+</div></div>",null,"""","""","""","""","""","""","""","""","""","""","""",2022-01-22 22:21:24,98.41.189.27,"Mozilla/5.0 (Macintosh; Intel Mac OS X 10_13_6) AppleWebKit/537.36 (KHTML, like Gecko) Chrome/96.0.4664.55 Safari/537.36",Macintosh,Chrome,96.0.4664.55,OS X,10_13_6,42dc06cf6f210f01c904868893d507e0
1,1,"""","""","""","""","""",cb-flicker,94,263028,0.0-11.0-1.26,86134,NaN,"""","""",539.7942857142857,179.93142857142857,true,3184.0999999046326,261168.60000014305,261169.40000009537,"""",target_stable.png,target_stable_HighSal.png,240,80,2022-01-22 22:21:24,98.41.189.27,"Mozilla/5.0 (Macintosh; Intel Mac OS X 10_13_6) AppleWebKit/537.36 (KHTML, like Gecko) Chrome/96.0.4664.55 Safari/537.36",Macintosh,Chrome,96.0.4664.55,OS X,10_13_6,42dc06cf6f210f01c904868893d507e0
1,1,"""","""","""","""","""",html-button-response,95,263893,0.0-11.0-2.26,86134,861.2000000476837,<h3>Correct!</h3>,0,"""","""","""","""","""","""","""","""","""","""","""",2022-01-22 22:21:24,98.41.189.27,"Mozilla/5.0 (Macintosh; Intel Mac OS X 10_13_6) AppleWebKit/537.36 (KHTML, like Gecko) Chrome/96.0.4664.55 Safari/537.36",Macintosh,Chrome,96.0.4664.55,OS X,10_13_6,42dc06cf6f210f01c904868893d507e0
1,1,"""","""","""","""","""",html-keyboard-response,96,265893,0.0-11.0-0.27,86134,null,"<div class=""container-debug"" style=""background-color:gray;height:525px;width:700px""><div style=""font-size:60px;color:white;text-align:center;vertical-align:middle;line-height:525px;"">+</div></div>",null,"""","""","""","""","""","""","""","""","""","""","""",2022-01-22 22:21:24,98.41.189.27,"Mozilla/5.0 (Macintosh; Intel Mac OS X 10_13_6) AppleWebKit/537.36 (KHTML, like Gecko) Chrome/96.0.4664.55 Safari/537.36",Macintosh,Chrome,96.0.4664.55,OS X,10_13_6,42dc06cf6f210f01c904868893d507e0
1,1,"""","""","""","""","""",cb-flicker,97,270014,0.0-11.0-1.27,86134,NaN,"""","""",700.7085714285714,285.25714285714287,true,4119.599999904633,267218.60000014305,267219.2000000477,"""",target_stream.png,target_stream_HighSal.png,240,80,2022-01-22 22:21:24,98.41.189.27,"Mozilla/5.0 (Macintosh; Intel Mac OS X 10_13_6) AppleWebKit/537.36 (KHTML, like Gecko) Chrome/96.0.4664.55 Safari/537.36",Macintosh,Chrome,96.0.4664.55,OS X,10_13_6,42dc06cf6f210f01c904868893d507e0
1,1,"""","""","""","""","""",html-button-response,98,271042,0.0-11.0-2.27,86134,1026,<h3>Correct!</h3>,0,"""","""","""","""","""","""","""","""","""","""","""",2022-01-22 22:21:24,98.41.189.27,"Mozilla/5.0 (Macintosh; Intel Mac OS X 10_13_6) AppleWebKit/537.36 (KHTML, like Gecko) Chrome/96.0.4664.55 Safari/537.36",Macintosh,Chrome,96.0.4664.55,OS X,10_13_6,42dc06cf6f210f01c904868893d507e0
1,1,"""","""","""","""","""",html-keyboard-response,99,273048,0.0-11.0-0.28,86134,null,"<div class=""container-debug"" style=""background-color:gray;height:525px;width:700px""><div style=""font-size:60px;color:white;text-align:center;vertical-align:middle;line-height:525px;"">+</div></div>",null,"""","""","""","""","""","""","""","""","""","""","""",2022-01-22 22:21:24,98.41.189.27,"Mozilla/5.0 (Macintosh; Intel Mac OS X 10_13_6) AppleWebKit/537.36 (KHTML, like Gecko) Chrome/96.0.4664.55 Safari/537.36",Macintosh,Chrome,96.0.4664.55,OS X,10_13_6,42dc06cf6f210f01c904868893d507e0
1,1,"""","""","""","""","""",cb-flicker,100,275181,0.0-11.0-1.28,86134,NaN,"""","""",190.17142857142858,298.42285714285714,true,2131.899999856949,274373.60000014305,274374.2999999523,"""",target_canal.png,target_canal_HighSal.png,240,80,2022-01-22 22:21:24,98.41.189.27,"Mozilla/5.0 (Macintosh; Intel Mac OS X 10_13_6) AppleWebKit/537.36 (KHTML, like Gecko) Chrome/96.0.4664.55 Safari/537.36",Macintosh,Chrome,96.0.4664.55,OS X,10_13_6,42dc06cf6f210f01c904868893d507e0
1,1,"""","""","""","""","""",html-button-response,101,276331,0.0-11.0-2.28,86134,1149.2000000476837,<h3>Correct!</h3>,0,"""","""","""","""","""","""","""","""","""","""","""",2022-01-22 22:21:24,98.41.189.27,"Mozilla/5.0 (Macintosh; Intel Mac OS X 10_13_6) AppleWebKit/537.36 (KHTML, like Gecko) Chrome/96.0.4664.55 Safari/537.36",Macintosh,Chrome,96.0.4664.55,OS X,10_13_6,42dc06cf6f210f01c904868893d507e0
1,1,"""","""","""","""","""",html-keyboard-response,102,278339,0.0-11.0-0.29,86134,null,"<div class=""container-debug"" style=""background-color:gray;height:525px;width:700px""><div style=""font-size:60px;color:white;text-align:center;vertical-align:middle;line-height:525px;"">+</div></div>",null,"""","""","""","""","""","""","""","""","""","""","""",2022-01-22 22:21:24,98.41.189.27,"Mozilla/5.0 (Macintosh; Intel Mac OS X 10_13_6) AppleWebKit/537.36 (KHTML, like Gecko) Chrome/96.0.4664.55 Safari/537.36",Macintosh,Chrome,96.0.4664.55,OS X,10_13_6,42dc06cf6f210f01c904868893d507e0
1,1,"""","""","""","""","""",cb-flicker,103,281617,0.0-11.0-1.29,86134,NaN,"""","""",573.44,232.59428571428572,true,3277.600000143051,279663.7999999523,279664.40000009537,"""",target_cemetery.png,target_cemetery_HighSal.png,240,80,2022-01-22 22:21:24,98.41.189.27,"Mozilla/5.0 (Macintosh; Intel Mac OS X 10_13_6) AppleWebKit/537.36 (KHTML, like Gecko) Chrome/96.0.4664.55 Safari/537.36",Macintosh,Chrome,96.0.4664.55,OS X,10_13_6,42dc06cf6f210f01c904868893d507e0
1,1,"""","""","""","""","""",html-button-response,104,282874,0.0-11.0-2.29,86134,1256.1000001430511,<h3>Correct!</h3>,0,"""","""","""","""","""","""","""","""","""","""","""",2022-01-22 22:21:24,98.41.189.27,"Mozilla/5.0 (Macintosh; Intel Mac OS X 10_13_6) AppleWebKit/537.36 (KHTML, like Gecko) Chrome/96.0.4664.55 Safari/537.36",Macintosh,Chrome,96.0.4664.55,OS X,10_13_6,42dc06cf6f210f01c904868893d507e0
1,1,"""","""","""","""","""",html-keyboard-response,105,284881,0.0-11.0-0.30,86134,null,"<div class=""container-debug"" style=""background-color:gray;height:525px;width:700px""><div style=""font-size:60px;color:white;text-align:center;vertical-align:middle;line-height:525px;"">+</div></div>",null,"""","""","""","""","""","""","""","""","""","""","""",2022-01-22 22:21:24,98.41.189.27,"Mozilla/5.0 (Macintosh; Intel Mac OS X 10_13_6) AppleWebKit/537.36 (KHTML, like Gecko) Chrome/96.0.4664.55 Safari/537.36",Macintosh,Chrome,96.0.4664.55,OS X,10_13_6,42dc06cf6f210f01c904868893d507e0
1,1,"""","""","""","""","""",cb-flicker,106,287151,0.0-11.0-1.30,86134,NaN,"""","""",283.7942857142857,479.81714285714287,true,2269.7999999523163,286205.7000000477,286206.40000009537,"""",target_beach.png,target_beach_HighMean.png,240,80,2022-01-22 22:21:24,98.41.189.27,"Mozilla/5.0 (Macintosh; Intel Mac OS X 10_13_6) AppleWebKit/537.36 (KHTML, like Gecko) Chrome/96.0.4664.55 Safari/537.36",Macintosh,Chrome,96.0.4664.55,OS X,10_13_6,42dc06cf6f210f01c904868893d507e0
1,1,"""","""","""","""","""",html-button-response,107,287886,0.0-11.0-2.30,86134,733.5,<h3>Correct!</h3>,0,"""","""","""","""","""","""","""","""","""","""","""",2022-01-22 22:21:24,98.41.189.27,"Mozilla/5.0 (Macintosh; Intel Mac OS X 10_13_6) AppleWebKit/537.36 (KHTML, like Gecko) Chrome/96.0.4664.55 Safari/537.36",Macintosh,Chrome,96.0.4664.55,OS X,10_13_6,42dc06cf6f210f01c904868893d507e0
1,1,"""","""","""","""","""",html-keyboard-response,108,289891,0.0-11.0-0.31,86134,null,"<div class=""container-debug"" style=""background-color:gray;height:525px;width:700px""><div style=""font-size:60px;color:white;text-align:center;vertical-align:middle;line-height:525px;"">+</div></div>",null,"""","""","""","""","""","""","""","""","""","""","""",2022-01-22 22:21:24,98.41.189.27,"Mozilla/5.0 (Macintosh; Intel Mac OS X 10_13_6) AppleWebKit/537.36 (KHTML, like Gecko) Chrome/96.0.4664.55 Safari/537.36",Macintosh,Chrome,96.0.4664.55,OS X,10_13_6,42dc06cf6f210f01c904868893d507e0
1,1,"""","""","""","""","""",cb-flicker,109,291814,0.0-11.0-1.31,86134,NaN,"""","""",792.8685714285714,548.5714285714286,true,1919.2999999523163,291218.5,291219.10000014305,"""",target_mountain.png,target_mountain_HighSal.png,240,80,2022-01-22 22:21:24,98.41.189.27,"Mozilla/5.0 (Macintosh; Intel Mac OS X 10_13_6) AppleWebKit/537.36 (KHTML, like Gecko) Chrome/96.0.4664.55 Safari/537.36",Macintosh,Chrome,96.0.4664.55,OS X,10_13_6,42dc06cf6f210f01c904868893d507e0
1,1,"""","""","""","""","""",html-button-response,110,292703,0.0-11.0-2.31,86134,888.9000000953674,<h3>Correct!</h3>,0,"""","""","""","""","""","""","""","""","""","""","""",2022-01-22 22:21:24,98.41.189.27,"Mozilla/5.0 (Macintosh; Intel Mac OS X 10_13_6) AppleWebKit/537.36 (KHTML, like Gecko) Chrome/96.0.4664.55 Safari/537.36",Macintosh,Chrome,96.0.4664.55,OS X,10_13_6,42dc06cf6f210f01c904868893d507e0
1,1,"""","""","""","""","""",html-keyboard-response,111,294708,0.0-11.0-0.32,86134,null,"<div class=""container-debug"" style=""background-color:gray;height:525px;width:700px""><div style=""font-size:60px;color:white;text-align:center;vertical-align:middle;line-height:525px;"">+</div></div>",null,"""","""","""","""","""","""","""","""","""","""","""",2022-01-22 22:21:24,98.41.189.27,"Mozilla/5.0 (Macintosh; Intel Mac OS X 10_13_6) AppleWebKit/537.36 (KHTML, like Gecko) Chrome/96.0.4664.55 Safari/537.36",Macintosh,Chrome,96.0.4664.55,OS X,10_13_6,42dc06cf6f210f01c904868893d507e0
1,1,"""","""","""","""","""",cb-flicker,112,297049,0.0-11.0-1.32,86134,NaN,"""","""",816.2742857142857,469.57714285714286,true,2339.7000000476837,296033.2999999523,296034,"""",target_atticRoom.png,target_atticRoom_HighSal.png,240,80,2022-01-22 22:21:24,98.41.189.27,"Mozilla/5.0 (Macintosh; Intel Mac OS X 10_13_6) AppleWebKit/537.36 (KHTML, like Gecko) Chrome/96.0.4664.55 Safari/537.36",Macintosh,Chrome,96.0.4664.55,OS X,10_13_6,42dc06cf6f210f01c904868893d507e0
1,1,"""","""","""","""","""",html-button-response,113,297694,0.0-11.0-2.32,86134,642.7000000476837,<h3>Correct!</h3>,0,"""","""","""","""","""","""","""","""","""","""","""",2022-01-22 22:21:24,98.41.189.27,"Mozilla/5.0 (Macintosh; Intel Mac OS X 10_13_6) AppleWebKit/537.36 (KHTML, like Gecko) Chrome/96.0.4664.55 Safari/537.36",Macintosh,Chrome,96.0.4664.55,OS X,10_13_6,42dc06cf6f210f01c904868893d507e0
1,1,"""","""","""","""","""",html-keyboard-response,114,299695,0.0-11.0-0.33,86134,null,"<div class=""container-debug"" style=""background-color:gray;height:525px;width:700px""><div style=""font-size:60px;color:white;text-align:center;vertical-align:middle;line-height:525px;"">+</div></div>",null,"""","""","""","""","""","""","""","""","""","""","""",2022-01-22 22:21:24,98.41.189.27,"Mozilla/5.0 (Macintosh; Intel Mac OS X 10_13_6) AppleWebKit/537.36 (KHTML, like Gecko) Chrome/96.0.4664.55 Safari/537.36",Macintosh,Chrome,96.0.4664.55,OS X,10_13_6,42dc06cf6f210f01c904868893d507e0
1,1,"""","""","""","""","""",cb-flicker,115,303191,0.0-11.0-1.33,86134,NaN,"""","""",819.2,367.1771428571429,true,3494.399999856949,301020.10000014305,301020.7000000477,"""",target_park.png,target_park_HighSal.png,240,80,2022-01-22 22:21:24,98.41.189.27,"Mozilla/5.0 (Macintosh; Intel Mac OS X 10_13_6) AppleWebKit/537.36 (KHTML, like Gecko) Chrome/96.0.4664.55 Safari/537.36",Macintosh,Chrome,96.0.4664.55,OS X,10_13_6,42dc06cf6f210f01c904868893d507e0
1,1,"""","""","""","""","""",html-button-response,116,304039,0.0-11.0-2.33,86134,844.7000000476837,<h3>Correct!</h3>,0,"""","""","""","""","""","""","""","""","""","""","""",2022-01-22 22:21:24,98.41.189.27,"Mozilla/5.0 (Macintosh; Intel Mac OS X 10_13_6) AppleWebKit/537.36 (KHTML, like Gecko) Chrome/96.0.4664.55 Safari/537.36",Macintosh,Chrome,96.0.4664.55,OS X,10_13_6,42dc06cf6f210f01c904868893d507e0
1,1,"""","""","""","""","""",html-keyboard-response,117,306040,0.0-11.0-0.34,86134,null,"<div class=""container-debug"" style=""background-color:gray;height:525px;width:700px""><div style=""font-size:60px;color:white;text-align:center;vertical-align:middle;line-height:525px;"">+</div></div>",null,"""","""","""","""","""","""","""","""","""","""","""",2022-01-22 22:21:24,98.41.189.27,"Mozilla/5.0 (Macintosh; Intel Mac OS X 10_13_6) AppleWebKit/537.36 (KHTML, like Gecko) Chrome/96.0.4664.55 Safari/537.36",Macintosh,Chrome,96.0.4664.55,OS X,10_13_6,42dc06cf6f210f01c904868893d507e0
1,1,"""","""","""","""","""",cb-flicker,118,310314,0.0-11.0-1.34,86134,NaN,"""","""",630.4914285714286,269.1657142857143,true,4272.900000095367,307365,307365.7000000477,"""",target_busstop.png,target_busstop_HighSal.png,240,80,2022-01-22 22:21:24,98.41.189.27,"Mozilla/5.0 (Macintosh; Intel Mac OS X 10_13_6) AppleWebKit/537.36 (KHTML, like Gecko) Chrome/96.0.4664.55 Safari/537.36",Macintosh,Chrome,96.0.4664.55,OS X,10_13_6,42dc06cf6f210f01c904868893d507e0
1,1,"""","""","""","""","""",html-button-response,119,311138,0.0-11.0-2.34,86134,821.0999999046326,<h3>Correct!</h3>,0,"""","""","""","""","""","""","""","""","""","""","""",2022-01-22 22:21:24,98.41.189.27,"Mozilla/5.0 (Macintosh; Intel Mac OS X 10_13_6) AppleWebKit/537.36 (KHTML, like Gecko) Chrome/96.0.4664.55 Safari/537.36",Macintosh,Chrome,96.0.4664.55,OS X,10_13_6,42dc06cf6f210f01c904868893d507e0
1,1,"""","""","""","""","""",html-keyboard-response,120,313139,0.0-11.0-0.35,86134,null,"<div class=""container-debug"" style=""background-color:gray;height:525px;width:700px""><div style=""font-size:60px;color:white;text-align:center;vertical-align:middle;line-height:525px;"">+</div></div>",null,"""","""","""","""","""","""","""","""","""","""","""",2022-01-22 22:21:24,98.41.189.27,"Mozilla/5.0 (Macintosh; Intel Mac OS X 10_13_6) AppleWebKit/537.36 (KHTML, like Gecko) Chrome/96.0.4664.55 Safari/537.36",Macintosh,Chrome,96.0.4664.55,OS X,10_13_6,42dc06cf6f210f01c904868893d507e0
1,1,"""","""","""","""","""",cb-flicker,121,314985,0.0-11.0-1.35,86134,NaN,"""","""",797.2571428571429,463.7257142857143,false,1844.5,314464.5,314465.10000014305,"""",target_airport.png,target_airport_HighMean.png,240,80,2022-01-22 22:21:24,98.41.189.27,"Mozilla/5.0 (Macintosh; Intel Mac OS X 10_13_6) AppleWebKit/537.36 (KHTML, like Gecko) Chrome/96.0.4664.55 Safari/537.36",Macintosh,Chrome,96.0.4664.55,OS X,10_13_6,42dc06cf6f210f01c904868893d507e0
1,1,"""","""","""","""","""",html-button-response,122,316322,0.0-11.0-2.35,86134,1336.2999999523163,"<h3>Sorry, that's not where the distortion was.</h3>",0,"""","""","""","""","""","""","""","""","""","""","""",2022-01-22 22:21:24,98.41.189.27,"Mozilla/5.0 (Macintosh; Intel Mac OS X 10_13_6) AppleWebKit/537.36 (KHTML, like Gecko) Chrome/96.0.4664.55 Safari/537.36",Macintosh,Chrome,96.0.4664.55,OS X,10_13_6,42dc06cf6f210f01c904868893d507e0
1,1,"""","""","""","""","""",html-keyboard-response,123,318329,0.0-11.0-0.36,86134,null,"<div class=""container-debug"" style=""background-color:gray;height:525px;width:700px""><div style=""font-size:60px;color:white;text-align:center;vertical-align:middle;line-height:525px;"">+</div></div>",null,"""","""","""","""","""","""","""","""","""","""","""",2022-01-22 22:21:24,98.41.189.27,"Mozilla/5.0 (Macintosh; Intel Mac OS X 10_13_6) AppleWebKit/537.36 (KHTML, like Gecko) Chrome/96.0.4664.55 Safari/537.36",Macintosh,Chrome,96.0.4664.55,OS X,10_13_6,42dc06cf6f210f01c904868893d507e0
1,1,"""","""","""","""","""",cb-flicker,124,320869,0.0-11.0-1.36,86134,NaN,"""","""",536.8685714285714,226.74285714285713,true,2538.4000000953674,319653.7999999523,319654.5,"""",target_canyon.png,target_canyon_HighMean.png,240,80,2022-01-22 22:21:24,98.41.189.27,"Mozilla/5.0 (Macintosh; Intel Mac OS X 10_13_6) AppleWebKit/537.36 (KHTML, like Gecko) Chrome/96.0.4664.55 Safari/537.36",Macintosh,Chrome,96.0.4664.55,OS X,10_13_6,42dc06cf6f210f01c904868893d507e0
1,1,"""","""","""","""","""",html-button-response,125,321905,0.0-11.0-2.36,86134,1035.6000001430511,<h3>Correct!</h3>,0,"""","""","""","""","""","""","""","""","""","""","""",2022-01-22 22:21:24,98.41.189.27,"Mozilla/5.0 (Macintosh; Intel Mac OS X 10_13_6) AppleWebKit/537.36 (KHTML, like Gecko) Chrome/96.0.4664.55 Safari/537.36",Macintosh,Chrome,96.0.4664.55,OS X,10_13_6,42dc06cf6f210f01c904868893d507e0
1,1,"""","""","""","""","""",html-keyboard-response,126,323908,0.0-11.0-0.37,86134,null,"<div class=""container-debug"" style=""background-color:gray;height:525px;width:700px""><div style=""font-size:60px;color:white;text-align:center;vertical-align:middle;line-height:525px;"">+</div></div>",null,"""","""","""","""","""","""","""","""","""","""","""",2022-01-22 22:21:24,98.41.189.27,"Mozilla/5.0 (Macintosh; Intel Mac OS X 10_13_6) AppleWebKit/537.36 (KHTML, like Gecko) Chrome/96.0.4664.55 Safari/537.36",Macintosh,Chrome,96.0.4664.55,OS X,10_13_6,42dc06cf6f210f01c904868893d507e0
1,1,"""","""","""","""","""",cb-flicker,127,326263,0.0-11.0-1.37,86134,NaN,"""","""",459.33714285714285,620.2514285714286,true,2350.399999856949,325235.90000009537,325236.60000014305,"""",target_dentistoffice.png,target_dentistoffice_HighMean.png,240,80,2022-01-22 22:21:24,98.41.189.27,"Mozilla/5.0 (Macintosh; Intel Mac OS X 10_13_6) AppleWebKit/537.36 (KHTML, like Gecko) Chrome/96.0.4664.55 Safari/537.36",Macintosh,Chrome,96.0.4664.55,OS X,10_13_6,42dc06cf6f210f01c904868893d507e0
1,1,"""","""","""","""","""",html-button-response,128,327168,0.0-11.0-2.37,86134,904.3000001907349,<h3>Correct!</h3>,0,"""","""","""","""","""","""","""","""","""","""","""",2022-01-22 22:21:24,98.41.189.27,"Mozilla/5.0 (Macintosh; Intel Mac OS X 10_13_6) AppleWebKit/537.36 (KHTML, like Gecko) Chrome/96.0.4664.55 Safari/537.36",Macintosh,Chrome,96.0.4664.55,OS X,10_13_6,42dc06cf6f210f01c904868893d507e0
1,1,"""","""","""","""","""",html-keyboard-response,129,329173,0.0-11.0-0.38,86134,null,"<div class=""container-debug"" style=""background-color:gray;height:525px;width:700px""><div style=""font-size:60px;color:white;text-align:center;vertical-align:middle;line-height:525px;"">+</div></div>",null,"""","""","""","""","""","""","""","""","""","""","""",2022-01-22 22:21:24,98.41.189.27,"Mozilla/5.0 (Macintosh; Intel Mac OS X 10_13_6) AppleWebKit/537.36 (KHTML, like Gecko) Chrome/96.0.4664.55 Safari/537.36",Macintosh,Chrome,96.0.4664.55,OS X,10_13_6,42dc06cf6f210f01c904868893d507e0
1,1,"""","""","""","""","""",cb-flicker,130,332217,0.0-11.0-1.38,86134,NaN,"""","""",229.66857142857143,446.1714285714286,true,3042.7999999523163,330497.60000014305,330498.2999999523,"""",target_bedroom.png,target_bedroom_HighSal.png,240,80,2022-01-22 22:21:24,98.41.189.27,"Mozilla/5.0 (Macintosh; Intel Mac OS X 10_13_6) AppleWebKit/537.36 (KHTML, like Gecko) Chrome/96.0.4664.55 Safari/537.36",Macintosh,Chrome,96.0.4664.55,OS X,10_13_6,42dc06cf6f210f01c904868893d507e0
1,1,"""","""","""","""","""",html-button-response,131,333473,0.0-11.0-2.38,86134,1252.6999998092651,<h3>Correct!</h3>,0,"""","""","""","""","""","""","""","""","""","""","""",2022-01-22 22:21:24,98.41.189.27,"Mozilla/5.0 (Macintosh; Intel Mac OS X 10_13_6) AppleWebKit/537.36 (KHTML, like Gecko) Chrome/96.0.4664.55 Safari/537.36",Macintosh,Chrome,96.0.4664.55,OS X,10_13_6,42dc06cf6f210f01c904868893d507e0
1,1,"""","""","""","""","""",html-keyboard-response,132,335477,0.0-11.0-0.39,86134,null,"<div class=""container-debug"" style=""background-color:gray;height:525px;width:700px""><div style=""font-size:60px;color:white;text-align:center;vertical-align:middle;line-height:525px;"">+</div></div>",null,"""","""","""","""","""","""","""","""","""","""","""",2022-01-22 22:21:24,98.41.189.27,"Mozilla/5.0 (Macintosh; Intel Mac OS X 10_13_6) AppleWebKit/537.36 (KHTML, like Gecko) Chrome/96.0.4664.55 Safari/537.36",Macintosh,Chrome,96.0.4664.55,OS X,10_13_6,42dc06cf6f210f01c904868893d507e0
1,1,"""","""","""","""","""",cb-flicker,133,337522,0.0-11.0-1.39,86134,NaN,"""","""",301.3485714285714,364.25142857142856,true,2043.8999998569489,336801.90000009537,336802.5,"""",target_garage.png,target_garage_HighMean.png,240,80,2022-01-22 22:21:24,98.41.189.27,"Mozilla/5.0 (Macintosh; Intel Mac OS X 10_13_6) AppleWebKit/537.36 (KHTML, like Gecko) Chrome/96.0.4664.55 Safari/537.36",Macintosh,Chrome,96.0.4664.55,OS X,10_13_6,42dc06cf6f210f01c904868893d507e0
1,1,"""","""","""","""","""",html-button-response,134,338225,0.0-11.0-2.39,86134,701.5,<h3>Correct!</h3>,0,"""","""","""","""","""","""","""","""","""","""","""",2022-01-22 22:21:24,98.41.189.27,"Mozilla/5.0 (Macintosh; Intel Mac OS X 10_13_6) AppleWebKit/537.36 (KHTML, like Gecko) Chrome/96.0.4664.55 Safari/537.36",Macintosh,Chrome,96.0.4664.55,OS X,10_13_6,42dc06cf6f210f01c904868893d507e0
1,1,"""","""","""","""","""",html-keyboard-response,135,340232,0.0-11.0-0.40,86134,null,"<div class=""container-debug"" style=""background-color:gray;height:525px;width:700px""><div style=""font-size:60px;color:white;text-align:center;vertical-align:middle;line-height:525px;"">+</div></div>",null,"""","""","""","""","""","""","""","""","""","""","""",2022-01-22 22:21:24,98.41.189.27,"Mozilla/5.0 (Macintosh; Intel Mac OS X 10_13_6) AppleWebKit/537.36 (KHTML, like Gecko) Chrome/96.0.4664.55 Safari/537.36",Macintosh,Chrome,96.0.4664.55,OS X,10_13_6,42dc06cf6f210f01c904868893d507e0
1,1,"""","""","""","""","""",cb-flicker,136,341984,0.0-11.0-1.40,86134,NaN,"""","""",699.2457142857143,525.1657142857143,true,1750.5,341556.60000014305,341557.2999999523,"""",target_nursery.png,target_nursery_HighSal.png,240,80,2022-01-22 22:21:24,98.41.189.27,"Mozilla/5.0 (Macintosh; Intel Mac OS X 10_13_6) AppleWebKit/537.36 (KHTML, like Gecko) Chrome/96.0.4664.55 Safari/537.36",Macintosh,Chrome,96.0.4664.55,OS X,10_13_6,42dc06cf6f210f01c904868893d507e0
1,1,"""","""","""","""","""",html-button-response,137,342865,0.0-11.0-2.40,86134,880.4000000953674,<h3>Correct!</h3>,0,"""","""","""","""","""","""","""","""","""","""","""",2022-01-22 22:21:24,98.41.189.27,"Mozilla/5.0 (Macintosh; Intel Mac OS X 10_13_6) AppleWebKit/537.36 (KHTML, like Gecko) Chrome/96.0.4664.55 Safari/537.36",Macintosh,Chrome,96.0.4664.55,OS X,10_13_6,42dc06cf6f210f01c904868893d507e0
1,1,"""","""","""","""","""",html-keyboard-response,138,344870,0.0-11.0-0.41,86134,null,"<div class=""container-debug"" style=""background-color:gray;height:525px;width:700px""><div style=""font-size:60px;color:white;text-align:center;vertical-align:middle;line-height:525px;"">+</div></div>",null,"""","""","""","""","""","""","""","""","""","""","""",2022-01-22 22:21:24,98.41.189.27,"Mozilla/5.0 (Macintosh; Intel Mac OS X 10_13_6) AppleWebKit/537.36 (KHTML, like Gecko) Chrome/96.0.4664.55 Safari/537.36",Macintosh,Chrome,96.0.4664.55,OS X,10_13_6,42dc06cf6f210f01c904868893d507e0
1,1,"""","""","""","""","""",cb-flicker,139,346581,0.0-11.0-1.41,86134,NaN,"""","""",307.2,273.5542857142857,true,1707.8000001907349,346196.7999999523,346197.60000014305,"""",target_porch.png,target_porch_HighSal.png,240,80,2022-01-22 22:21:24,98.41.189.27,"Mozilla/5.0 (Macintosh; Intel Mac OS X 10_13_6) AppleWebKit/537.36 (KHTML, like Gecko) Chrome/96.0.4664.55 Safari/537.36",Macintosh,Chrome,96.0.4664.55,OS X,10_13_6,42dc06cf6f210f01c904868893d507e0
1,1,"""","""","""","""","""",html-button-response,140,347324,0.0-11.0-2.41,86134,742.2000000476837,<h3>Correct!</h3>,0,"""","""","""","""","""","""","""","""","""","""","""",2022-01-22 22:21:24,98.41.189.27,"Mozilla/5.0 (Macintosh; Intel Mac OS X 10_13_6) AppleWebKit/537.36 (KHTML, like Gecko) Chrome/96.0.4664.55 Safari/537.36",Macintosh,Chrome,96.0.4664.55,OS X,10_13_6,42dc06cf6f210f01c904868893d507e0
1,1,"""","""","""","""","""",html-keyboard-response,141,349328,0.0-11.0-0.42,86134,null,"<div class=""container-debug"" style=""background-color:gray;height:525px;width:700px""><div style=""font-size:60px;color:white;text-align:center;vertical-align:middle;line-height:525px;"">+</div></div>",null,"""","""","""","""","""","""","""","""","""","""","""",2022-01-22 22:21:24,98.41.189.27,"Mozilla/5.0 (Macintosh; Intel Mac OS X 10_13_6) AppleWebKit/537.36 (KHTML, like Gecko) Chrome/96.0.4664.55 Safari/537.36",Macintosh,Chrome,96.0.4664.55,OS X,10_13_6,42dc06cf6f210f01c904868893d507e0
1,1,"""","""","""","""","""",cb-flicker,142,351269,0.0-11.0-1.42,86134,NaN,"""","""",567.5885714285714,203.33714285714285,true,1939.1000001430511,350652.7999999523,350653.5,"""",target_hairsalon.png,target_hairsalon_HighMean.png,240,80,2022-01-22 22:21:24,98.41.189.27,"Mozilla/5.0 (Macintosh; Intel Mac OS X 10_13_6) AppleWebKit/537.36 (KHTML, like Gecko) Chrome/96.0.4664.55 Safari/537.36",Macintosh,Chrome,96.0.4664.55,OS X,10_13_6,42dc06cf6f210f01c904868893d507e0
1,1,"""","""","""","""","""",html-button-response,143,352060,0.0-11.0-2.42,86134,788,<h3>Correct!</h3>,0,"""","""","""","""","""","""","""","""","""","""","""",2022-01-22 22:21:24,98.41.189.27,"Mozilla/5.0 (Macintosh; Intel Mac OS X 10_13_6) AppleWebKit/537.36 (KHTML, like Gecko) Chrome/96.0.4664.55 Safari/537.36",Macintosh,Chrome,96.0.4664.55,OS X,10_13_6,42dc06cf6f210f01c904868893d507e0
1,1,"""","""","""","""","""",html-keyboard-response,144,354065,0.0-11.0-0.43,86134,null,"<div class=""container-debug"" style=""background-color:gray;height:525px;width:700px""><div style=""font-size:60px;color:white;text-align:center;vertical-align:middle;line-height:525px;"">+</div></div>",null,"""","""","""","""","""","""","""","""","""","""","""",2022-01-22 22:21:24,98.41.189.27,"Mozilla/5.0 (Macintosh; Intel Mac OS X 10_13_6) AppleWebKit/537.36 (KHTML, like Gecko) Chrome/96.0.4664.55 Safari/537.36",Macintosh,Chrome,96.0.4664.55,OS X,10_13_6,42dc06cf6f210f01c904868893d507e0
1,1,"""","""","""","""","""",cb-flicker,145,358887,0.0-11.0-1.43,86134,NaN,"""","""",763.6114285714285,187.24571428571429,true,4820.099999904633,355389.7000000477,355390.40000009537,"""",target_deli.png,target_deli_HighSal.png,240,80,2022-01-22 22:21:24,98.41.189.27,"Mozilla/5.0 (Macintosh; Intel Mac OS X 10_13_6) AppleWebKit/537.36 (KHTML, like Gecko) Chrome/96.0.4664.55 Safari/537.36",Macintosh,Chrome,96.0.4664.55,OS X,10_13_6,42dc06cf6f210f01c904868893d507e0
1,1,"""","""","""","""","""",html-button-response,146,359997,0.0-11.0-2.43,86134,1107.7999999523163,<h3>Correct!</h3>,0,"""","""","""","""","""","""","""","""","""","""","""",2022-01-22 22:21:24,98.41.189.27,"Mozilla/5.0 (Macintosh; Intel Mac OS X 10_13_6) AppleWebKit/537.36 (KHTML, like Gecko) Chrome/96.0.4664.55 Safari/537.36",Macintosh,Chrome,96.0.4664.55,OS X,10_13_6,42dc06cf6f210f01c904868893d507e0
1,1,"""","""","""","""","""",html-keyboard-response,147,362001,0.0-11.0-0.44,86134,null,"<div class=""container-debug"" style=""background-color:gray;height:525px;width:700px""><div style=""font-size:60px;color:white;text-align:center;vertical-align:middle;line-height:525px;"">+</div></div>",null,"""","""","""","""","""","""","""","""","""","""","""",2022-01-22 22:21:24,98.41.189.27,"Mozilla/5.0 (Macintosh; Intel Mac OS X 10_13_6) AppleWebKit/537.36 (KHTML, like Gecko) Chrome/96.0.4664.55 Safari/537.36",Macintosh,Chrome,96.0.4664.55,OS X,10_13_6,42dc06cf6f210f01c904868893d507e0
1,1,"""","""","""","""","""",cb-flicker,148,363856,0.0-11.0-1.44,86134,NaN,"""","""",368.64,196.02285714285713,true,1854.0999999046326,363325.40000009537,363326.10000014305,"""",target_coffeeshop.png,target_coffeeshop_HighSal.png,240,80,2022-01-22 22:21:24,98.41.189.27,"Mozilla/5.0 (Macintosh; Intel Mac OS X 10_13_6) AppleWebKit/537.36 (KHTML, like Gecko) Chrome/96.0.4664.55 Safari/537.36",Macintosh,Chrome,96.0.4664.55,OS X,10_13_6,42dc06cf6f210f01c904868893d507e0
1,1,"""","""","""","""","""",html-button-response,149,364649,0.0-11.0-2.44,86134,791.5,<h3>Correct!</h3>,0,"""","""","""","""","""","""","""","""","""","""","""",2022-01-22 22:21:24,98.41.189.27,"Mozilla/5.0 (Macintosh; Intel Mac OS X 10_13_6) AppleWebKit/537.36 (KHTML, like Gecko) Chrome/96.0.4664.55 Safari/537.36",Macintosh,Chrome,96.0.4664.55,OS X,10_13_6,42dc06cf6f210f01c904868893d507e0
1,1,"""","""","""","""","""",html-keyboard-response,150,366651,0.0-11.0-0.45,86134,null,"<div class=""container-debug"" style=""background-color:gray;height:525px;width:700px""><div style=""font-size:60px;color:white;text-align:center;vertical-align:middle;line-height:525px;"">+</div></div>",null,"""","""","""","""","""","""","""","""","""","""","""",2022-01-22 22:21:24,98.41.189.27,"Mozilla/5.0 (Macintosh; Intel Mac OS X 10_13_6) AppleWebKit/537.36 (KHTML, like Gecko) Chrome/96.0.4664.55 Safari/537.36",Macintosh,Chrome,96.0.4664.55,OS X,10_13_6,42dc06cf6f210f01c904868893d507e0
1,1,"""","""","""","""","""",cb-flicker,151,368886,0.0-11.0-1.45,86134,NaN,"""","""",833.8285714285714,435.93142857142857,true,2230.7000000476837,367978,367978.7999999523,"""",target_tunnel.png,target_tunnel_HighSal.png,240,80,2022-01-22 22:21:24,98.41.189.27,"Mozilla/5.0 (Macintosh; Intel Mac OS X 10_13_6) AppleWebKit/537.36 (KHTML, like Gecko) Chrome/96.0.4664.55 Safari/537.36",Macintosh,Chrome,96.0.4664.55,OS X,10_13_6,42dc06cf6f210f01c904868893d507e0
1,1,"""","""","""","""","""",html-button-response,152,369808,0.0-11.0-2.45,86134,920.9000000953674,<h3>Correct!</h3>,0,"""","""","""","""","""","""","""","""","""","""","""",2022-01-22 22:21:24,98.41.189.27,"Mozilla/5.0 (Macintosh; Intel Mac OS X 10_13_6) AppleWebKit/537.36 (KHTML, like Gecko) Chrome/96.0.4664.55 Safari/537.36",Macintosh,Chrome,96.0.4664.55,OS X,10_13_6,42dc06cf6f210f01c904868893d507e0
1,1,"""","""","""","""","""",html-keyboard-response,153,371812,0.0-11.0-0.46,86134,null,"<div class=""container-debug"" style=""background-color:gray;height:525px;width:700px""><div style=""font-size:60px;color:white;text-align:center;vertical-align:middle;line-height:525px;"">+</div></div>",null,"""","""","""","""","""","""","""","""","""","""","""",2022-01-22 22:21:24,98.41.189.27,"Mozilla/5.0 (Macintosh; Intel Mac OS X 10_13_6) AppleWebKit/537.36 (KHTML, like Gecko) Chrome/96.0.4664.55 Safari/537.36",Macintosh,Chrome,96.0.4664.55,OS X,10_13_6,42dc06cf6f210f01c904868893d507e0
1,1,"""","""","""","""","""",cb-flicker,154,374171,0.0-11.0-1.46,86134,NaN,"""","""",310.1257142857143,371.5657142857143,true,2358.399999856949,373135.90000009537,373136.5,"""",target_closet.png,target_closet_HighSal.png,240,80,2022-01-22 22:21:24,98.41.189.27,"Mozilla/5.0 (Macintosh; Intel Mac OS X 10_13_6) AppleWebKit/537.36 (KHTML, like Gecko) Chrome/96.0.4664.55 Safari/537.36",Macintosh,Chrome,96.0.4664.55,OS X,10_13_6,42dc06cf6f210f01c904868893d507e0
1,1,"""","""","""","""","""",html-button-response,155,375256,0.0-11.0-2.46,86134,1081.0999999046326,<h3>Correct!</h3>,0,"""","""","""","""","""","""","""","""","""","""","""",2022-01-22 22:21:24,98.41.189.27,"Mozilla/5.0 (Macintosh; Intel Mac OS X 10_13_6) AppleWebKit/537.36 (KHTML, like Gecko) Chrome/96.0.4664.55 Safari/537.36",Macintosh,Chrome,96.0.4664.55,OS X,10_13_6,42dc06cf6f210f01c904868893d507e0
1,1,"""","""","""","""","""",html-keyboard-response,156,377262,0.0-11.0-0.47,86134,null,"<div class=""container-debug"" style=""background-color:gray;height:525px;width:700px""><div style=""font-size:60px;color:white;text-align:center;vertical-align:middle;line-height:525px;"">+</div></div>",null,"""","""","""","""","""","""","""","""","""","""","""",2022-01-22 22:21:24,98.41.189.27,"Mozilla/5.0 (Macintosh; Intel Mac OS X 10_13_6) AppleWebKit/537.36 (KHTML, like Gecko) Chrome/96.0.4664.55 Safari/537.36",Macintosh,Chrome,96.0.4664.55,OS X,10_13_6,42dc06cf6f210f01c904868893d507e0
1,1,"""","""","""","""","""",cb-flicker,157,379063,0.0-11.0-1.47,86134,NaN,"""","""",709.4857142857143,256,true,1799.7999999523163,378586.10000014305,378586.7999999523,"""",target_toystore.png,target_toystore_HighMean.png,240,80,2022-01-22 22:21:24,98.41.189.27,"Mozilla/5.0 (Macintosh; Intel Mac OS X 10_13_6) AppleWebKit/537.36 (KHTML, like Gecko) Chrome/96.0.4664.55 Safari/537.36",Macintosh,Chrome,96.0.4664.55,OS X,10_13_6,42dc06cf6f210f01c904868893d507e0
1,1,"""","""","""","""","""",html-button-response,158,379781,0.0-11.0-2.47,86134,716.5999999046326,<h3>Correct!</h3>,0,"""","""","""","""","""","""","""","""","""","""","""",2022-01-22 22:21:24,98.41.189.27,"Mozilla/5.0 (Macintosh; Intel Mac OS X 10_13_6) AppleWebKit/537.36 (KHTML, like Gecko) Chrome/96.0.4664.55 Safari/537.36",Macintosh,Chrome,96.0.4664.55,OS X,10_13_6,42dc06cf6f210f01c904868893d507e0
1,1,"""","""","""","""","""",html-keyboard-response,159,381785,0.0-11.0-0.48,86134,null,"<div class=""container-debug"" style=""background-color:gray;height:525px;width:700px""><div style=""font-size:60px;color:white;text-align:center;vertical-align:middle;line-height:525px;"">+</div></div>",null,"""","""","""","""","""","""","""","""","""","""","""",2022-01-22 22:21:24,98.41.189.27,"Mozilla/5.0 (Macintosh; Intel Mac OS X 10_13_6) AppleWebKit/537.36 (KHTML, like Gecko) Chrome/96.0.4664.55 Safari/537.36",Macintosh,Chrome,96.0.4664.55,OS X,10_13_6,42dc06cf6f210f01c904868893d507e0
1,1,"""","""","""","""","""",cb-flicker,160,383506,0.0-11.0-1.48,86134,NaN,"""","""",664.1371428571429,563.2,true,1720.3000001907349,383108.7999999523,383109.5,"""",target_clothingstore.png,target_clothingstore_HighSal.png,240,80,2022-01-22 22:21:24,98.41.189.27,"Mozilla/5.0 (Macintosh; Intel Mac OS X 10_13_6) AppleWebKit/537.36 (KHTML, like Gecko) Chrome/96.0.4664.55 Safari/537.36",Macintosh,Chrome,96.0.4664.55,OS X,10_13_6,42dc06cf6f210f01c904868893d507e0
1,1,"""","""","""","""","""",html-button-response,161,384697,0.0-11.0-2.48,86134,1190.2000000476837,<h3>Correct!</h3>,0,"""","""","""","""","""","""","""","""","""","""","""",2022-01-22 22:21:24,98.41.189.27,"Mozilla/5.0 (Macintosh; Intel Mac OS X 10_13_6) AppleWebKit/537.36 (KHTML, like Gecko) Chrome/96.0.4664.55 Safari/537.36",Macintosh,Chrome,96.0.4664.55,OS X,10_13_6,42dc06cf6f210f01c904868893d507e0
1,1,"""","""","""","""","""",html-keyboard-response,162,386701,0.0-11.0-0.49,86134,null,"<div class=""container-debug"" style=""background-color:gray;height:525px;width:700px""><div style=""font-size:60px;color:white;text-align:center;vertical-align:middle;line-height:525px;"">+</div></div>",null,"""","""","""","""","""","""","""","""","""","""","""",2022-01-22 22:21:24,98.41.189.27,"Mozilla/5.0 (Macintosh; Intel Mac OS X 10_13_6) AppleWebKit/537.36 (KHTML, like Gecko) Chrome/96.0.4664.55 Safari/537.36",Macintosh,Chrome,96.0.4664.55,OS X,10_13_6,42dc06cf6f210f01c904868893d507e0
1,1,"""","""","""","""","""",cb-flicker,163,388876,0.0-11.0-1.49,86134,NaN,"""","""",560.2742857142857,201.87428571428572,true,2170.9000000953674,388028.5,388029.2999999523,"""",target_swamp.png,target_swamp_HighMean.png,240,80,2022-01-22 22:21:24,98.41.189.27,"Mozilla/5.0 (Macintosh; Intel Mac OS X 10_13_6) AppleWebKit/537.36 (KHTML, like Gecko) Chrome/96.0.4664.55 Safari/537.36",Macintosh,Chrome,96.0.4664.55,OS X,10_13_6,42dc06cf6f210f01c904868893d507e0
1,1,"""","""","""","""","""",html-button-response,164,391007,0.0-11.0-2.49,86134,2129.2999999523163,<h3>Correct!</h3>,0,"""","""","""","""","""","""","""","""","""","""","""",2022-01-22 22:21:24,98.41.189.27,"Mozilla/5.0 (Macintosh; Intel Mac OS X 10_13_6) AppleWebKit/537.36 (KHTML, like Gecko) Chrome/96.0.4664.55 Safari/537.36",Macintosh,Chrome,96.0.4664.55,OS X,10_13_6,42dc06cf6f210f01c904868893d507e0
1,1,"""","""","""","""","""",html-keyboard-response,165,393009,0.0-11.0-0.50,86134,null,"<div class=""container-debug"" style=""background-color:gray;height:525px;width:700px""><div style=""font-size:60px;color:white;text-align:center;vertical-align:middle;line-height:525px;"">+</div></div>",null,"""","""","""","""","""","""","""","""","""","""","""",2022-01-22 22:21:24,98.41.189.27,"Mozilla/5.0 (Macintosh; Intel Mac OS X 10_13_6) AppleWebKit/537.36 (KHTML, like Gecko) Chrome/96.0.4664.55 Safari/537.36",Macintosh,Chrome,96.0.4664.55,OS X,10_13_6,42dc06cf6f210f01c904868893d507e0
1,1,"""","""","""","""","""",cb-flicker,166,398076,0.0-11.0-1.50,86134,NaN,"""","""",201.87428571428572,222.3542857142857,true,5063.100000143051,394335.5,394336.60000014305,"""",target_ruins.png,target_ruins_HighSal.png,240,80,2022-01-22 22:21:24,98.41.189.27,"Mozilla/5.0 (Macintosh; Intel Mac OS X 10_13_6) AppleWebKit/537.36 (KHTML, like Gecko) Chrome/96.0.4664.55 Safari/537.36",Macintosh,Chrome,96.0.4664.55,OS X,10_13_6,42dc06cf6f210f01c904868893d507e0
1,1,"""","""","""","""","""",html-button-response,167,398852,0.0-11.0-2.50,86134,775.4000000953674,<h3>Correct!</h3>,0,"""","""","""","""","""","""","""","""","""","""","""",2022-01-22 22:21:24,98.41.189.27,"Mozilla/5.0 (Macintosh; Intel Mac OS X 10_13_6) AppleWebKit/537.36 (KHTML, like Gecko) Chrome/96.0.4664.55 Safari/537.36",Macintosh,Chrome,96.0.4664.55,OS X,10_13_6,42dc06cf6f210f01c904868893d507e0
1,1,"""","""","""","""","""",html-keyboard-response,168,400854,0.0-11.0-0.51,86134,null,"<div class=""container-debug"" style=""background-color:gray;height:525px;width:700px""><div style=""font-size:60px;color:white;text-align:center;vertical-align:middle;line-height:525px;"">+</div></div>",null,"""","""","""","""","""","""","""","""","""","""","""",2022-01-22 22:21:24,98.41.189.27,"Mozilla/5.0 (Macintosh; Intel Mac OS X 10_13_6) AppleWebKit/537.36 (KHTML, like Gecko) Chrome/96.0.4664.55 Safari/537.36",Macintosh,Chrome,96.0.4664.55,OS X,10_13_6,42dc06cf6f210f01c904868893d507e0
1,1,"""","""","""","""","""",cb-flicker,169,403153,0.0-11.0-1.51,86134,NaN,"""","""",491.52,529.5542857142857,true,2294.600000143051,402180.7999999523,402181.60000014305,"""",target_church.png,target_church_HighMean.png,240,80,2022-01-22 22:21:24,98.41.189.27,"Mozilla/5.0 (Macintosh; Intel Mac OS X 10_13_6) AppleWebKit/537.36 (KHTML, like Gecko) Chrome/96.0.4664.55 Safari/537.36",Macintosh,Chrome,96.0.4664.55,OS X,10_13_6,42dc06cf6f210f01c904868893d507e0
1,1,"""","""","""","""","""",html-button-response,170,403952,0.0-11.0-2.51,86134,798.5,<h3>Correct!</h3>,0,"""","""","""","""","""","""","""","""","""","""","""",2022-01-22 22:21:24,98.41.189.27,"Mozilla/5.0 (Macintosh; Intel Mac OS X 10_13_6) AppleWebKit/537.36 (KHTML, like Gecko) Chrome/96.0.4664.55 Safari/537.36",Macintosh,Chrome,96.0.4664.55,OS X,10_13_6,42dc06cf6f210f01c904868893d507e0
1,1,"""","""","""","""","""",html-keyboard-response,171,405957,0.0-11.0-0.52,86134,null,"<div class=""container-debug"" style=""background-color:gray;height:525px;width:700px""><div style=""font-size:60px;color:white;text-align:center;vertical-align:middle;line-height:525px;"">+</div></div>",null,"""","""","""","""","""","""","""","""","""","""","""",2022-01-22 22:21:24,98.41.189.27,"Mozilla/5.0 (Macintosh; Intel Mac OS X 10_13_6) AppleWebKit/537.36 (KHTML, like Gecko) Chrome/96.0.4664.55 Safari/537.36",Macintosh,Chrome,96.0.4664.55,OS X,10_13_6,42dc06cf6f210f01c904868893d507e0
1,1,"""","""","""","""","""",cb-flicker,172,407667,0.0-11.0-1.52,86134,NaN,"""","""",409.6,507.6114285714286,true,1709.1000001430511,407280.7999999523,407281.5,"""",target_racetrack.png,target_racetrack_HighSal.png,240,80,2022-01-22 22:21:24,98.41.189.27,"Mozilla/5.0 (Macintosh; Intel Mac OS X 10_13_6) AppleWebKit/537.36 (KHTML, like Gecko) Chrome/96.0.4664.55 Safari/537.36",Macintosh,Chrome,96.0.4664.55,OS X,10_13_6,42dc06cf6f210f01c904868893d507e0
1,1,"""","""","""","""","""",html-button-response,173,408778,0.0-11.0-2.52,86134,1107,<h3>Correct!</h3>,0,"""","""","""","""","""","""","""","""","""","""","""",2022-01-22 22:21:24,98.41.189.27,"Mozilla/5.0 (Macintosh; Intel Mac OS X 10_13_6) AppleWebKit/537.36 (KHTML, like Gecko) Chrome/96.0.4664.55 Safari/537.36",Macintosh,Chrome,96.0.4664.55,OS X,10_13_6,42dc06cf6f210f01c904868893d507e0
1,1,"""","""","""","""","""",html-keyboard-response,174,410780,0.0-11.0-0.53,86134,null,"<div class=""container-debug"" style=""background-color:gray;height:525px;width:700px""><div style=""font-size:60px;color:white;text-align:center;vertical-align:middle;line-height:525px;"">+</div></div>",null,"""","""","""","""","""","""","""","""","""","""","""",2022-01-22 22:21:24,98.41.189.27,"Mozilla/5.0 (Macintosh; Intel Mac OS X 10_13_6) AppleWebKit/537.36 (KHTML, like Gecko) Chrome/96.0.4664.55 Safari/537.36",Macintosh,Chrome,96.0.4664.55,OS X,10_13_6,42dc06cf6f210f01c904868893d507e0
1,1,"""","""","""","""","""",cb-flicker,175,413225,0.0-11.0-1.53,86134,NaN,"""","""",590.9942857142858,220.89142857142858,true,2444.2000000476837,412103.7000000477,412104.40000009537,"""",target_waterfall.png,target_waterfall_HighMean.png,240,80,2022-01-22 22:21:24,98.41.189.27,"Mozilla/5.0 (Macintosh; Intel Mac OS X 10_13_6) AppleWebKit/537.36 (KHTML, like Gecko) Chrome/96.0.4664.55 Safari/537.36",Macintosh,Chrome,96.0.4664.55,OS X,10_13_6,42dc06cf6f210f01c904868893d507e0
1,1,"""","""","""","""","""",html-button-response,176,414376,0.0-11.0-2.53,86134,1149.5,<h3>Correct!</h3>,0,"""","""","""","""","""","""","""","""","""","""","""",2022-01-22 22:21:24,98.41.189.27,"Mozilla/5.0 (Macintosh; Intel Mac OS X 10_13_6) AppleWebKit/537.36 (KHTML, like Gecko) Chrome/96.0.4664.55 Safari/537.36",Macintosh,Chrome,96.0.4664.55,OS X,10_13_6,42dc06cf6f210f01c904868893d507e0
1,1,"""","""","""","""","""",html-keyboard-response,177,416377,0.0-11.0-0.54,86134,null,"<div class=""container-debug"" style=""background-color:gray;height:525px;width:700px""><div style=""font-size:60px;color:white;text-align:center;vertical-align:middle;line-height:525px;"">+</div></div>",null,"""","""","""","""","""","""","""","""","""","""","""",2022-01-22 22:21:24,98.41.189.27,"Mozilla/5.0 (Macintosh; Intel Mac OS X 10_13_6) AppleWebKit/537.36 (KHTML, like Gecko) Chrome/96.0.4664.55 Safari/537.36",Macintosh,Chrome,96.0.4664.55,OS X,10_13_6,42dc06cf6f210f01c904868893d507e0
1,1,"""","""","""","""","""",cb-flicker,178,418093,0.0-11.0-1.54,86134,NaN,"""","""",301.3485714285714,349.62285714285713,true,1715.1999998092651,417700.60000014305,417701.40000009537,"""",target_postoffice.png,target_postoffice_HighMean.png,240,80,2022-01-22 22:21:24,98.41.189.27,"Mozilla/5.0 (Macintosh; Intel Mac OS X 10_13_6) AppleWebKit/537.36 (KHTML, like Gecko) Chrome/96.0.4664.55 Safari/537.36",Macintosh,Chrome,96.0.4664.55,OS X,10_13_6,42dc06cf6f210f01c904868893d507e0
1,1,"""","""","""","""","""",html-button-response,179,418835,0.0-11.0-2.54,86134,738.0999999046326,<h3>Correct!</h3>,0,"""","""","""","""","""","""","""","""","""","""","""",2022-01-22 22:21:24,98.41.189.27,"Mozilla/5.0 (Macintosh; Intel Mac OS X 10_13_6) AppleWebKit/537.36 (KHTML, like Gecko) Chrome/96.0.4664.55 Safari/537.36",Macintosh,Chrome,96.0.4664.55,OS X,10_13_6,42dc06cf6f210f01c904868893d507e0
1,1,"""","""","""","""","""",html-keyboard-response,180,420841,0.0-11.0-0.55,86134,null,"<div class=""container-debug"" style=""background-color:gray;height:525px;width:700px""><div style=""font-size:60px;color:white;text-align:center;vertical-align:middle;line-height:525px;"">+</div></div>",null,"""","""","""","""","""","""","""","""","""","""","""",2022-01-22 22:21:24,98.41.189.27,"Mozilla/5.0 (Macintosh; Intel Mac OS X 10_13_6) AppleWebKit/537.36 (KHTML, like Gecko) Chrome/96.0.4664.55 Safari/537.36",Macintosh,Chrome,96.0.4664.55,OS X,10_13_6,42dc06cf6f210f01c904868893d507e0
1,1,"""","""","""","""","""",cb-flicker,181,422479,0.0-11.0-1.55,86134,NaN,"""","""",215.04,425.69142857142856,true,1637.0999999046326,422164.7000000477,422165.5,"""",target_amusementpark.png,target_amusementpark_HighMean.png,240,80,2022-01-22 22:21:24,98.41.189.27,"Mozilla/5.0 (Macintosh; Intel Mac OS X 10_13_6) AppleWebKit/537.36 (KHTML, like Gecko) Chrome/96.0.4664.55 Safari/537.36",Macintosh,Chrome,96.0.4664.55,OS X,10_13_6,42dc06cf6f210f01c904868893d507e0
1,1,"""","""","""","""","""",html-button-response,182,423222,0.0-11.0-2.55,86134,741.7999999523163,<h3>Correct!</h3>,0,"""","""","""","""","""","""","""","""","""","""","""",2022-01-22 22:21:24,98.41.189.27,"Mozilla/5.0 (Macintosh; Intel Mac OS X 10_13_6) AppleWebKit/537.36 (KHTML, like Gecko) Chrome/96.0.4664.55 Safari/537.36",Macintosh,Chrome,96.0.4664.55,OS X,10_13_6,42dc06cf6f210f01c904868893d507e0
1,1,"""","""","""","""","""",html-keyboard-response,183,425223,0.0-11.0-0.56,86134,null,"<div class=""container-debug"" style=""background-color:gray;height:525px;width:700px""><div style=""font-size:60px;color:white;text-align:center;vertical-align:middle;line-height:525px;"">+</div></div>",null,"""","""","""","""","""","""","""","""","""","""","""",2022-01-22 22:21:24,98.41.189.27,"Mozilla/5.0 (Macintosh; Intel Mac OS X 10_13_6) AppleWebKit/537.36 (KHTML, like Gecko) Chrome/96.0.4664.55 Safari/537.36",Macintosh,Chrome,96.0.4664.55,OS X,10_13_6,42dc06cf6f210f01c904868893d507e0
1,1,"""","""","""","""","""",cb-flicker,184,427214,0.0-11.0-1.56,86134,NaN,"""","""",291.10857142857145,416.9142857142857,true,1985.6000001430511,426550.5,426551.2999999523,"""",target_grassland.png,target_grassland_HighMean.png,240,80,2022-01-22 22:21:24,98.41.189.27,"Mozilla/5.0 (Macintosh; Intel Mac OS X 10_13_6) AppleWebKit/537.36 (KHTML, like Gecko) Chrome/96.0.4664.55 Safari/537.36",Macintosh,Chrome,96.0.4664.55,OS X,10_13_6,42dc06cf6f210f01c904868893d507e0
1,1,"""","""","""","""","""",html-button-response,185,427908,0.0-11.0-2.56,86134,693.2999999523163,<h3>Correct!</h3>,0,"""","""","""","""","""","""","""","""","""","""","""",2022-01-22 22:21:24,98.41.189.27,"Mozilla/5.0 (Macintosh; Intel Mac OS X 10_13_6) AppleWebKit/537.36 (KHTML, like Gecko) Chrome/96.0.4664.55 Safari/537.36",Macintosh,Chrome,96.0.4664.55,OS X,10_13_6,42dc06cf6f210f01c904868893d507e0
1,1,"""","""","""","""","""",html-keyboard-response,186,429914,0.0-11.0-0.57,86134,null,"<div class=""container-debug"" style=""background-color:gray;height:525px;width:700px""><div style=""font-size:60px;color:white;text-align:center;vertical-align:middle;line-height:525px;"">+</div></div>",null,"""","""","""","""","""","""","""","""","""","""","""",2022-01-22 22:21:24,98.41.189.27,"Mozilla/5.0 (Macintosh; Intel Mac OS X 10_13_6) AppleWebKit/537.36 (KHTML, like Gecko) Chrome/96.0.4664.55 Safari/537.36",Macintosh,Chrome,96.0.4664.55,OS X,10_13_6,42dc06cf6f210f01c904868893d507e0
1,1,"""","""","""","""","""",cb-flicker,187,431625,0.0-11.0-1.57,86134,NaN,"""","""",321.8285714285714,226.74285714285713,true,1709.5,431237.7999999523,431238.5,"""",target_driveway.png,target_driveway_HighMean.png,240,80,2022-01-22 22:21:24,98.41.189.27,"Mozilla/5.0 (Macintosh; Intel Mac OS X 10_13_6) AppleWebKit/537.36 (KHTML, like Gecko) Chrome/96.0.4664.55 Safari/537.36",Macintosh,Chrome,96.0.4664.55,OS X,10_13_6,42dc06cf6f210f01c904868893d507e0
1,1,"""","""","""","""","""",html-button-response,188,432718,0.0-11.0-2.57,86134,1089.2000000476837,<h3>Correct!</h3>,0,"""","""","""","""","""","""","""","""","""","""","""",2022-01-22 22:21:24,98.41.189.27,"Mozilla/5.0 (Macintosh; Intel Mac OS X 10_13_6) AppleWebKit/537.36 (KHTML, like Gecko) Chrome/96.0.4664.55 Safari/537.36",Macintosh,Chrome,96.0.4664.55,OS X,10_13_6,42dc06cf6f210f01c904868893d507e0
1,1,"""","""","""","""","""",html-keyboard-response,189,434721,0.0-11.0-0.58,86134,null,"<div class=""container-debug"" style=""background-color:gray;height:525px;width:700px""><div style=""font-size:60px;color:white;text-align:center;vertical-align:middle;line-height:525px;"">+</div></div>",null,"""","""","""","""","""","""","""","""","""","""","""",2022-01-22 22:21:24,98.41.189.27,"Mozilla/5.0 (Macintosh; Intel Mac OS X 10_13_6) AppleWebKit/537.36 (KHTML, like Gecko) Chrome/96.0.4664.55 Safari/537.36",Macintosh,Chrome,96.0.4664.55,OS X,10_13_6,42dc06cf6f210f01c904868893d507e0
1,1,"""","""","""","""","""",cb-flicker,190,437543,0.0-11.0-1.58,86134,NaN,"""","""",826.5142857142857,384.7314285714286,true,2821.2999999523163,436044,436044.7999999523,"""",target_courtroom.png,target_courtroom_HighSal.png,240,80,2022-01-22 22:21:24,98.41.189.27,"Mozilla/5.0 (Macintosh; Intel Mac OS X 10_13_6) AppleWebKit/537.36 (KHTML, like Gecko) Chrome/96.0.4664.55 Safari/537.36",Macintosh,Chrome,96.0.4664.55,OS X,10_13_6,42dc06cf6f210f01c904868893d507e0
1,1,"""","""","""","""","""",html-button-response,191,438336,0.0-11.0-2.58,86134,791.5999999046326,<h3>Correct!</h3>,0,"""","""","""","""","""","""","""","""","""","""","""",2022-01-22 22:21:24,98.41.189.27,"Mozilla/5.0 (Macintosh; Intel Mac OS X 10_13_6) AppleWebKit/537.36 (KHTML, like Gecko) Chrome/96.0.4664.55 Safari/537.36",Macintosh,Chrome,96.0.4664.55,OS X,10_13_6,42dc06cf6f210f01c904868893d507e0
1,1,"""","""","""","""","""",html-keyboard-response,192,440346,0.0-11.0-0.59,86134,null,"<div class=""container-debug"" style=""background-color:gray;height:525px;width:700px""><div style=""font-size:60px;color:white;text-align:center;vertical-align:middle;line-height:525px;"">+</div></div>",null,"""","""","""","""","""","""","""","""","""","""","""",2022-01-22 22:21:24,98.41.189.27,"Mozilla/5.0 (Macintosh; Intel Mac OS X 10_13_6) AppleWebKit/537.36 (KHTML, like Gecko) Chrome/96.0.4664.55 Safari/537.36",Macintosh,Chrome,96.0.4664.55,OS X,10_13_6,42dc06cf6f210f01c904868893d507e0
1,1,"""","""","""","""","""",cb-flicker,193,442190,0.0-11.0-1.59,86134,NaN,"""","""",607.0857142857143,277.9428571428571,true,1842.6999998092651,441669.60000014305,441670.40000009537,"""",target_AtticStorage.png,target_AtticStorage_HighSal.png,240,80,2022-01-22 22:21:24,98.41.189.27,"Mozilla/5.0 (Macintosh; Intel Mac OS X 10_13_6) AppleWebKit/537.36 (KHTML, like Gecko) Chrome/96.0.4664.55 Safari/537.36",Macintosh,Chrome,96.0.4664.55,OS X,10_13_6,42dc06cf6f210f01c904868893d507e0
1,1,"""","""","""","""","""",html-button-response,194,443297,0.0-11.0-2.59,86134,1105.4000000953674,<h3>Correct!</h3>,0,"""","""","""","""","""","""","""","""","""","""","""",2022-01-22 22:21:24,98.41.189.27,"Mozilla/5.0 (Macintosh; Intel Mac OS X 10_13_6) AppleWebKit/537.36 (KHTML, like Gecko) Chrome/96.0.4664.55 Safari/537.36",Macintosh,Chrome,96.0.4664.55,OS X,10_13_6,42dc06cf6f210f01c904868893d507e0
1,1,"""","""","""","""","""",html-keyboard-response,195,445301,0.0-11.0-0.60,86134,null,"<div class=""container-debug"" style=""background-color:gray;height:525px;width:700px""><div style=""font-size:60px;color:white;text-align:center;vertical-align:middle;line-height:525px;"">+</div></div>",null,"""","""","""","""","""","""","""","""","""","""","""",2022-01-22 22:21:24,98.41.189.27,"Mozilla/5.0 (Macintosh; Intel Mac OS X 10_13_6) AppleWebKit/537.36 (KHTML, like Gecko) Chrome/96.0.4664.55 Safari/537.36",Macintosh,Chrome,96.0.4664.55,OS X,10_13_6,42dc06cf6f210f01c904868893d507e0
1,1,"""","""","""","""","""",cb-flicker,196,448585,0.0-11.0-1.60,86134,NaN,"""","""",808.96,596.8457142857143,true,3279.2000000476837,446627.90000009537,446628.7999999523,"""",target_hospital.png,target_hospital_HighSal.png,240,80,2022-01-22 22:21:24,98.41.189.27,"Mozilla/5.0 (Macintosh; Intel Mac OS X 10_13_6) AppleWebKit/537.36 (KHTML, like Gecko) Chrome/96.0.4664.55 Safari/537.36",Macintosh,Chrome,96.0.4664.55,OS X,10_13_6,42dc06cf6f210f01c904868893d507e0
1,1,"""","""","""","""","""",html-button-response,197,449335,0.0-11.0-2.60,86134,749.7999999523163,<h3>Correct!</h3>,0,"""","""","""","""","""","""","""","""","""","""","""",2022-01-22 22:21:24,98.41.189.27,"Mozilla/5.0 (Macintosh; Intel Mac OS X 10_13_6) AppleWebKit/537.36 (KHTML, like Gecko) Chrome/96.0.4664.55 Safari/537.36",Macintosh,Chrome,96.0.4664.55,OS X,10_13_6,42dc06cf6f210f01c904868893d507e0
1,1,"""","""","""","""","""",html-keyboard-response,198,451341,0.0-11.0-0.61,86134,null,"<div class=""container-debug"" style=""background-color:gray;height:525px;width:700px""><div style=""font-size:60px;color:white;text-align:center;vertical-align:middle;line-height:525px;"">+</div></div>",null,"""","""","""","""","""","""","""","""","""","""","""",2022-01-22 22:21:24,98.41.189.27,"Mozilla/5.0 (Macintosh; Intel Mac OS X 10_13_6) AppleWebKit/537.36 (KHTML, like Gecko) Chrome/96.0.4664.55 Safari/537.36",Macintosh,Chrome,96.0.4664.55,OS X,10_13_6,42dc06cf6f210f01c904868893d507e0
1,1,"""","""","""","""","""",cb-flicker,199,453693,0.0-11.0-1.61,86134,NaN,"""","""",329.14285714285717,383.2685714285714,true,2351.2000000476837,452664.2000000477,452664.7999999523,"""",target_warehouse.png,target_warehouse_HighMean.png,240,80,2022-01-22 22:21:24,98.41.189.27,"Mozilla/5.0 (Macintosh; Intel Mac OS X 10_13_6) AppleWebKit/537.36 (KHTML, like Gecko) Chrome/96.0.4664.55 Safari/537.36",Macintosh,Chrome,96.0.4664.55,OS X,10_13_6,42dc06cf6f210f01c904868893d507e0
1,1,"""","""","""","""","""",html-button-response,200,454811,0.0-11.0-2.61,86134,1114.2000000476837,<h3>Correct!</h3>,0,"""","""","""","""","""","""","""","""","""","""","""",2022-01-22 22:21:24,98.41.189.27,"Mozilla/5.0 (Macintosh; Intel Mac OS X 10_13_6) AppleWebKit/537.36 (KHTML, like Gecko) Chrome/96.0.4664.55 Safari/537.36",Macintosh,Chrome,96.0.4664.55,OS X,10_13_6,42dc06cf6f210f01c904868893d507e0
1,1,"""","""","""","""","""",html-keyboard-response,201,456818,0.0-11.0-0.62,86134,null,"<div class=""container-debug"" style=""background-color:gray;height:525px;width:700px""><div style=""font-size:60px;color:white;text-align:center;vertical-align:middle;line-height:525px;"">+</div></div>",null,"""","""","""","""","""","""","""","""","""","""","""",2022-01-22 22:21:24,98.41.189.27,"Mozilla/5.0 (Macintosh; Intel Mac OS X 10_13_6) AppleWebKit/537.36 (KHTML, like Gecko) Chrome/96.0.4664.55 Safari/537.36",Macintosh,Chrome,96.0.4664.55,OS X,10_13_6,42dc06cf6f210f01c904868893d507e0
1,1,"""","""","""","""","""",cb-flicker,202,458357,0.0-11.0-1.62,86134,NaN,"""","""",291.10857142857145,453.48571428571427,true,1538.2000000476837,458140.90000009537,458141.5,"""",target_winecellar.png,target_winecellar_HighMean.png,240,80,2022-01-22 22:21:24,98.41.189.27,"Mozilla/5.0 (Macintosh; Intel Mac OS X 10_13_6) AppleWebKit/537.36 (KHTML, like Gecko) Chrome/96.0.4664.55 Safari/537.36",Macintosh,Chrome,96.0.4664.55,OS X,10_13_6,42dc06cf6f210f01c904868893d507e0
