"rt","PosX","PosY","hit","trial_dur","trialStart","changeOnset","key_time","first_image","second_image","image_duration","mask_duration","change_onset_alt","trial_index","sbj_id","cond"
1418.5,913.408,227.328,true,2805.4000000003725,211578.59999999963,211901.5,213320,"example_a.jpg","example_b.jpg",240,80,1,5,"101378",3
822.5,452.608,604.16,true,1650.0999999996275,243932.80000000075,244255,245077.5,"Scene43_CON.png","Scene43_SEM.png",240,80,1,18,"101378",3
991.1999999992549,385.024,583.68,true,3096.199999999255,233142.80000000075,234431.90000000037,235423.09999999963,"Scene24_CON.png","Scene24_SEM.png",240,80,4,12,"101378",3
771.5999999996275,190.464,589.824,true,1624.0999999996275,258231.70000000112,258554.80000000075,259326.40000000037,"Scene45_CON.png","Scene45_SEM.png",240,80,1,24,"101378",3
574.6999999992549,632.832,438.272,true,1352,300392.4000000004,300715.2000000011,301289.9000000004,"Scene44_CON.png","Scene44_SEM.png",240,80,1,39,"101378",3
2720.699999999255,905.216,526.336,true,4217.799999998882,329190.7000000011,329833.30000000075,332554,"Scene59_CON.png","Scene59_SEM.png",240,80,2,54,"101378",3
1386.4000000003725,520.192,462.848,true,3089.5,349268.0999999996,350232.9000000004,351619.30000000075,"Scene6_CON.png","Scene6_SEM.png",240,80,3,63,"101378",3
1124.699999999255,575.488,475.136,true,2832.699999999255,370267.2000000011,371231.4000000004,372356.0999999996,"Scene12_CON.png","Scene12_SEM.png",240,80,3,75,"101378",3
458.5,217.088,491.52,true,1554.5,385959,386281.4000000004,386739.9000000004,"Scene40_CON.png","Scene40_SEM.png",240,80,1,84,"101378",3
502.40000000037253,841.728,573.44,true,1459.8999999985099,424775.2000000011,425097.5999999996,425600,"Scene38_CON.png","Scene38_SEM.png",240,80,1,105,"101378",3
629.9000000003725,702.464,464.896,true,2504.300000000745,437895,439181.30000000075,439811.2000000011,"Scene17_CON.png","Scene17_SEM.png",240,80,4,114,"101378",3
3952.4000000003725,366.592,530.432,true,5934.5,442997.9000000004,444285.4000000004,448237.80000000075,"Scene20_CON.png","Scene20_SEM.png",240,80,4,117,"101378",3
527.8000000007451,225.28,270.336,true,2862.39999999851,457647.2000000011,459253.4000000004,459781.2000000011,"Scene32_CON.png","Scene32_SEM.png",240,80,5,123,"101378",3
2438.9000000003725,129.024,415.744,true,4328.9000000003725,487424.4000000004,488711.30000000075,491150.2000000011,"Scene13_CON.png","Scene13_SEM.png",240,80,4,138,"101378",3
454.80000000074506,313.344,462.848,true,1552,498443.5999999996,499088.4000000004,499543.2000000011,"Scene56_CON.png","Scene56_SEM.png",240,80,2,144,"101378",3
371.5,526.336,288.768,true,2652.2000000011176,518255.5,519866.5999999996,520238.0999999996,"Scene31_CON.png","Scene31_SEM.png",240,80,5,156,"101378",3
2684.7999999988824,401.408,663.552,true,4025.5,529441.9000000004,530086.2000000011,532771,"Scene60_CON.png","Scene60_SEM.png",240,80,2,162,"101378",3
833.7999999988824,552.96,507.904,true,1717.300000000745,536135.9000000004,536458.3000000007,537292.0999999996,"Scene48_CON.png","Scene48_SEM.png",240,80,1,165,"101378",3
2556.4000000003725,325.632,387.072,true,4374.299999998882,588829.3000000007,590118.3000000007,592674.7000000011,"Scene18_CON.png","Scene18_SEM.png",240,80,4,192,"101378",3
1553.5,485.376,55.296,true,3430.0999999996275,262603.4000000004,263568.7000000011,265122.2000000011,"Scene4_CON.png","Scene4_SEM.png",240,80,3,27,"101378",3
3985.0999999996275,487.424,509.952,true,6437.800000000745,280773.5999999996,282382.5,286367.5999999996,"Scene27_CON.png","Scene27_SEM.png",240,80,5,33,"101378",3
1941.0999999996275,92.16,241.664,true,4742.300000000745,310248.9000000004,311859.5,313800.5999999996,"Scene30_CON.png","Scene30_SEM.png",240,80,5,45,"101378",3
4840.699999999255,743.424,378.88,true,5792.5999999996275,336186.9000000004,336510.2000000011,341350.9000000004,"Scene46_CON.png","Scene46_SEM.png",240,80,1,57,"101378",3
399,514.048,454.656,true,1531.0999999996275,375790.5,376434.80000000075,376833.80000000075,"Scene58_CON.png","Scene58_SEM.png",240,80,2,78,"101378",3
720,606.208,483.328,true,2644.89999999851,390212.2000000011,391500.7000000011,392220.7000000011,"Scene22_CON.png","Scene22_SEM.png",240,80,4,87,"101378",3
1104.5999999996275,204.8,485.376,true,3418,395448.4000000004,397057.4000000004,398162,"Scene29_CON.png","Scene29_SEM.png",240,80,5,90,"101378",3
2122.7000000011176,313.344,610.304,true,4045,418089.9000000004,419377.5,421500.2000000011,"Scene23_CON.png","Scene23_SEM.png",240,80,4,102,"101378",3
2659.7999999988824,813.056,358.4,true,4407.0999999996275,540420.4000000004,541386.7000000011,544046.5,"Scene1_CON.png","Scene1_SEM.png",240,80,3,168,"101378",3
437.80000000074506,172.032,389.12,true,2122.699999999255,547410.8000000007,548376.4000000004,548814.2000000011,"Scene5_CON.png","Scene5_SEM.png",240,80,3,171,"101378",3
653.5,892.928,272.384,true,3071.699999999255,552163.4000000004,553773.0999999996,554426.5999999996,"Scene25_CON.png","Scene25_SEM.png",240,80,5,174,"101378",3
1330.6000000014901,415.744,512,true,3338.0999999996275,570402.7000000011,571689.5999999996,573020.2000000011,"Scene16_CON.png","Scene16_SEM.png",240,80,4,183,"101378",3
532.5999999996275,788.48,380.928,true,1328.2000000011176,576573,576896,577428.5999999996,"Scene47_CON.png","Scene47_SEM.png",240,80,1,186,"101378",3
3383.7000000011176,612.352,305.152,true,5551,580514.5999999996,582126.0999999996,585509.8000000007,"Scene36_CON.png","Scene36_SEM.png",240,80,5,189,"101378",3
660.2000000011176,499.712,364.544,true,2098.800000000745,239118.59999999963,240085.09999999963,240745.30000000075,"Scene3_CON.png","Scene3_SEM.png",240,80,3,15,"101378",3
5547.60000000149,622.592,591.872,true,7641.4000000003725,269256,270543.5999999996,276091.2000000011,"Scene19_CON.png","Scene19_SEM.png",240,80,4,30,"101378",3
2504.300000000745,688.128,516.096,true,4958.700000001118,291376,292985.0999999996,295489.4000000004,"Scene33_CON.png","Scene33_SEM.png",240,80,5,36,"101378",3
699.7999999988824,825.344,587.776,true,2299.7000000011176,318571.5999999996,319214.7000000011,319914.5,"Scene61_CON.png","Scene61_SEM.png",240,80,2,48,"101378",3
596.9000000003725,704.512,473.088,true,1833.1000000014901,355120.5999999996,355764.9000000004,356361.80000000075,"Scene57_CON.png","Scene57_SEM.png",240,80,2,66,"101378",3
977.4000000003725,180.224,681.984,true,2200.9000000003725,359732.5,360376.0999999996,361353.5,"Scene62_CON.png","Scene62_SEM.png",240,80,2,69,"101378",3
400.2999999988824,798.72,567.296,true,2372.5999999996275,407595,408884.30000000075,409284.5999999996,"Scene21_CON.png","Scene21_SEM.png",240,80,4,96,"101378",3
780.7000000011176,409.6,614.4,true,2488.39999999851,412954.7000000011,413920.5,414701.2000000011,"Scene11_CON.png","Scene11_SEM.png",240,80,3,99,"101378",3
550,661.504,479.232,true,1772.7999999988824,433554.7000000011,434198.9000000004,434748.9000000004,"Scene55_CON.png","Scene55_SEM.png",240,80,2,111,"101378",3
2174.5999999996275,348.16,645.12,true,3337.5999999996275,451545.30000000075,452190.5,454365.0999999996,"Scene52_CON.png","Scene52_SEM.png",240,80,2,120,"101378",3
1496.9000000003725,514.048,274.432,true,2620.0999999996275,463240.7000000011,463883.80000000075,465380.7000000011,"Scene54_CON.png","Scene54_SEM.png",240,80,2,126,"101378",3
423.09999999962747,616.448,407.552,true,1974.699999999255,508950.7000000011,509916.7000000011,510339.80000000075,"Scene8_CON.png","Scene8_SEM.png",240,80,3,150,"101378",3
1102.3999999985099,901.12,247.808,true,3291,523560.30000000075,525168.7000000011,526271.0999999996,"Scene26_CON.png","Scene26_SEM.png",240,80,5,159,"101378",3
3527.0999999996275,354.304,559.104,true,4699,563070.2000000011,563392.7000000011,566919.8000000007,"Scene49_CON.png","Scene49_SEM.png",240,80,1,180,"101378",3
2463.4000000003725,350.208,411.648,true,4887.200000001118,224791.09999999963,226400.59999999963,228864,"Scene28_CON.png","Scene28_SEM.png",240,80,5,9,"101378",3
535.4000000003725,550.912,327.68,true,1482.300000000745,252607,252930.09999999963,253465.5,"Scene42_CON.png","Scene42_SEM.png",240,80,1,21,"101378",3
698.4000000003725,407.552,632.832,true,1703.5999999996275,305386,305707.9000000004,306406.30000000075,"Scene41_CON.png","Scene41_SEM.png",240,80,1,42,"101378",3
990.7000000011176,557.056,317.44,true,2403.199999999255,324008.2000000011,324654.0999999996,325644.80000000075,"Scene51_CON.png","Scene51_SEM.png",240,80,2,51,"101378",3
949.8000000007451,194.56,505.856,true,1942.5,344665.5,344987.9000000004,345937.7000000011,"Scene37_CON.png","Scene37_SEM.png",240,80,1,60,"101378",3
826.4000000003725,827.392,411.648,true,2339.5999999996275,365202.7000000011,366169,366995.4000000004,"Scene7_CON.png","Scene7_SEM.png",240,80,3,72,"101378",3
1336.699999999255,305.152,305.152,true,2993,379868.5,380834.30000000075,382171,"Scene10_CON.png","Scene10_SEM.png",240,80,3,81,"101378",3
1413.5999999996275,829.44,83.968,true,3195.199999999255,401580.80000000075,402548.4000000004,403962,"Scene9_CON.png","Scene9_SEM.png",240,80,3,93,"101378",3
490.7000000011176,129.024,505.856,true,1834.5,429066.80000000075,429710.0999999996,430200.80000000075,"Scene50_CON.png","Scene50_SEM.png",240,80,2,108,"101378",3
1426.2000000011176,720.896,575.488,true,3758,468639.0999999996,470250.0999999996,471676.30000000075,"Scene34_CON.png","Scene34_SEM.png",240,80,5,129,"101378",3
917,40.96,366.592,true,3377.2999999988824,475074.80000000075,476685.5,477602.5,"Scene35_CON.png","Scene35_SEM.png",240,80,5,132,"101378",3
1629.0999999996275,352.256,344.064,true,3705.4000000003725,481098,482386.80000000075,484015.9000000004,"Scene14_CON.png","Scene14_SEM.png",240,80,4,135,"101378",3
457.5,225.28,555.008,true,1528.5,494337.7000000011,494981.5999999996,495439.0999999996,"Scene53_CON.png","Scene53_SEM.png",240,80,2,141,"101378",3
1707,694.272,284.672,true,3751.4000000003725,502492.30000000075,503780.5999999996,505487.5999999996,"Scene15_CON.png","Scene15_SEM.png",240,80,4,147,"101378",3
396.80000000074506,337.92,628.736,true,1794.4000000003725,513618.9000000004,513941.0999999996,514337.9000000004,"Scene39_CON.png","Scene39_SEM.png",240,80,1,153,"101378",3
650.5999999996275,931.84,479.232,true,2331.5999999996275,558171.7000000011,559137.9000000004,559788.5,"Scene2_CON.png","Scene2_SEM.png",240,80,3,177,"101378",3
634.4000000059605,253.952,428.032,true,2201.5,90455.39999999106,91109.79999999702,91744.20000000298,"Scene28_CON.png","Scene28_SEM.png",240,80,2,9,"100978",5
613.3999999910593,196.608,290.816,true,1980.5999999940395,183534.20000000298,184182.5,184795.89999999106,"Scene32_CON.png","Scene32_SEM.png",240,80,2,60,"100978",5
1800.4000000059605,67.584,260.096,true,3378.5,265967.700000003,266619.09999999404,268419.5,"Scene30_CON.png","Scene30_SEM.png",240,80,2,99,"100978",5
405,247.808,456.704,true,2185.1000000089407,272210.09999999404,273180,273585,"Scene40_CON.png","Scene40_SEM.png",240,80,3,102,"100978",5
451.69999998807907,831.488,389.12,true,2132.8999999910593,286628.5,287611.200000003,288062.89999999106,"Scene47_CON.png","Scene47_SEM.png",240,80,3,111,"100978",5
598.5,180.224,706.56,true,2526.7999999970198,317975.799999997,319282.59999999404,319881.09999999404,"Scene62_CON.png","Scene62_SEM.png",240,80,4,129,"100978",5
1406.7000000029802,692.224,272.384,true,3278.7999999970198,323547,323872.39999999106,325279.09999999404,"Scene15_CON.png","Scene15_SEM.png",240,80,1,132,"100978",5
2428.199999988079,438.272,530.432,true,3520.7999999970198,347170.59999999404,347497.700000003,349925.89999999106,"Scene16_CON.png","Scene16_SEM.png",240,80,1,144,"100978",5
356.79999999701977,219.136,487.424,true,1688.5999999940395,393634.5,394284.5,394641.299999997,"Scene29_CON.png","Scene29_SEM.png",240,80,2,168,"100978",5
475.79999999701977,890.88,573.44,true,2059.7999999970198,402824.09999999404,403799.09999999404,404274.89999999106,"Scene38_CON.png","Scene38_SEM.png",240,80,3,174,"100978",5
442.20000000298023,600.064,311.296,true,1897.4000000059605,117664.89999999106,118315.89999999106,118758.09999999404,"Scene36_CON.png","Scene36_SEM.png",240,80,2,24,"100978",5
545.2999999970198,458.752,616.448,true,2260.7999999970198,126956.29999999702,127934,128479.29999999702,"Scene43_CON.png","Scene43_SEM.png",240,80,3,30,"100978",5
1339.2000000029802,821.248,577.536,true,2584.800000011921,137228.89999999106,137555.09999999404,138894.29999999702,"Scene21_CON.png","Scene21_SEM.png",240,80,1,36,"100978",5
1201.9000000059605,731.136,389.12,true,2936.2999999970198,142652,143632.59999999404,144834.5,"Scene46_CON.png","Scene46_SEM.png",240,80,3,39,"100978",5
2654.199999988079,518.144,505.856,true,4925.300000011921,160934.39999999106,162565.20000000298,165219.39999999106,"Scene12_CON.png","Scene12_SEM.png",240,80,5,48,"100978",5
749.3999999910593,542.72,335.872,true,2476.6000000089407,193980.89999999106,194959,195708.39999999106,"Scene42_CON.png","Scene42_SEM.png",240,80,3,66,"100978",5
554.8999999910593,311.296,702.464,true,2682.8999999910593,204839.70000000298,206144.5,206699.39999999106,"Scene52_CON.png","Scene52_SEM.png",240,80,4,72,"100978",5
635.3999999910593,647.168,544.768,false,2144.2000000029802,281684.39999999106,281685.700000003,282321.09999999404,"Scene2_CON.png","Scene2_SEM.png",240,80,5,108,"100978",5
1083.3999999910593,628.736,600.064,true,2291.3999999910593,296458.700000003,296786,297869.39999999106,"Scene19_CON.png","Scene19_SEM.png",240,80,1,117,"100978",5
1693.9000000059605,692.224,505.856,true,3610,360676,361324.39999999106,363018.299999997,"Scene33_CON.png","Scene33_SEM.png",240,80,2,150,"100978",5
487.79999999701977,626.688,456.704,true,1367.300000011921,367282.39999999106,367611.299999997,368099.09999999404,"Scene22_CON.png","Scene22_SEM.png",240,80,1,153,"100978",5
2291.2999999970198,923.648,235.52,true,4107.300000011921,74583.39999999106,74907.59999999404,77198.89999999106,"example_a.jpg","example_b.jpg",240,80,1,5,"100978",5
1382.6000000089407,727.04,575.488,true,2855.4000000059605,106295.39999999106,106944.39999999106,108327,"Scene34_CON.png","Scene34_SEM.png",240,80,2,18,"100978",5
1312.4000000059605,622.592,425.984,true,3143.8999999910593,95409.70000000298,96385.79999999702,97698.20000000298,"Scene44_CON.png","Scene44_SEM.png",240,80,3,12,"100978",5
628.5,135.168,483.328,true,1937.5,101380.39999999106,101707.09999999404,102335.59999999404,"Scene13_CON.png","Scene13_SEM.png",240,80,1,15,"100978",5
864.9000000059605,491.52,516.096,true,2598.9000000059605,112192.39999999106,112840.89999999106,113705.79999999702,"Scene27_CON.png","Scene27_SEM.png",240,80,2,21,"100978",5
792.7999999970198,466.944,45.056,true,3183.2999999970198,148284.29999999702,149915.20000000298,150708,"Scene4_CON.png","Scene4_SEM.png",240,80,5,42,"100978",5
800.4000000059605,745.472,497.664,true,2966.6000000089407,173606.59999999404,174901.89999999106,175702.29999999702,"Scene57_CON.png","Scene57_SEM.png",240,80,4,54,"100978",5
581.7000000029802,137.216,417.792,true,2912.0999999940395,199111.20000000298,200741.79999999702,201323.5,"Scene5_CON.png","Scene5_SEM.png",240,80,5,69,"100978",5
895.0999999940395,321.536,641.024,true,4876.800000011921,210500.89999999106,210502.20000000298,211397.29999999702,"Scene39_CON.png","Scene39_SEM.png",240,80,3,75,"100978",5
2300.7000000029802,448.512,399.36,true,4443.5999999940395,218347.79999999702,219980.29999999702,222281,"Scene8_CON.png","Scene8_SEM.png",240,80,5,78,"100978",5
3822.2000000029802,841.728,385.024,true,6161.9000000059605,225536.89999999106,227168.5,230990.70000000298,"Scene1_CON.png","Scene1_SEM.png",240,80,5,81,"100978",5
973.3999999910593,301.056,618.496,true,1944.199999988079,234376.20000000298,234704.20000000298,235677.59999999404,"Scene23_CON.png","Scene23_SEM.png",240,80,1,84,"100978",5
1521.2000000029802,536.576,378.88,true,3639.0999999940395,254146.29999999702,255776.5,257297.70000000298,"Scene3_CON.png","Scene3_SEM.png",240,80,5,93,"100978",5
969.6000000089407,538.624,526.336,true,2628.7999999970198,260520.5,261496.59999999404,262466.200000003,"Scene48_CON.png","Scene48_SEM.png",240,80,3,96,"100978",5
1214.3999999910593,380.928,530.432,true,2250.5999999940395,291487.700000003,291819.200000003,293033.59999999404,"Scene20_CON.png","Scene20_SEM.png",240,80,1,114,"100978",5
1843,434.176,573.44,true,2784,302850.39999999106,303179.09999999404,305022.09999999404,"Scene24_CON.png","Scene24_SEM.png",240,80,1,120,"100978",5
385.40000000596046,890.88,227.328,true,1811.1000000089407,313367.89999999106,314015.89999999106,314401.299999997,"Scene26_CON.png","Scene26_SEM.png",240,80,2,126,"100978",5
436.40000000596046,374.784,647.168,true,2090.5999999940395,332642.200000003,333621.09999999404,334057.5,"Scene41_CON.png","Scene41_SEM.png",240,80,3,135,"100978",5
1112.8999999910593,323.584,434.176,true,2220.5999999940395,397984.799999997,398315.200000003,399428.09999999404,"Scene18_CON.png","Scene18_SEM.png",240,80,1,171,"100978",5
1103.2000000029802,821.248,403.456,true,3325.9000000059605,407570.39999999106,409185.799999997,410289,"Scene7_CON.png","Scene7_SEM.png",240,80,5,177,"100978",5
1134.9000000059605,223.232,585.728,true,2977.199999988079,418859.700000003,420164.89999999106,421299.799999997,"Scene53_CON.png","Scene53_SEM.png",240,80,4,183,"100978",5
906.8999999910593,567.296,346.112,true,2807.0999999940395,424484.700000003,425789.700000003,426696.59999999404,"Scene51_CON.png","Scene51_SEM.png",240,80,4,186,"100978",5
337.40000000596046,436.224,481.28,true,2479,429917,431215.89999999106,431553.299999997,"Scene58_CON.png","Scene58_SEM.png",240,80,4,189,"100978",5
744.4000000059605,700.416,479.232,true,1852.4000000059605,122336.79999999702,122667.09999999404,123411.5,"Scene17_CON.png","Scene17_SEM.png",240,80,1,27,"100978",5
1146.2999999970198,294.912,176.128,false,2169.2000000029802,132066.29999999702,132067.79999999702,133214.09999999404,"Scene61_CON.png","Scene61_SEM.png",240,80,4,33,"100978",5
1214.7000000029802,362.496,614.4,true,3535.4000000059605,154353.79999999702,155979.29999999702,157194,"Scene11_CON.png","Scene11_SEM.png",240,80,5,45,"100978",5
452.79999999701977,63.488,380.928,true,2052.6000000089407,168679.39999999106,169334,169786.79999999702,"Scene35_CON.png","Scene35_SEM.png",240,80,2,51,"100978",5
532.2000000029802,344.064,337.92,true,1522.4000000059605,179292.39999999106,179616.59999999404,180148.79999999702,"Scene14_CON.png","Scene14_SEM.png",240,80,1,57,"100978",5
569,321.536,628.736,true,2729.2999999970198,188279.70000000298,189586.29999999702,190155.29999999702,"Scene60_CON.png","Scene60_SEM.png",240,80,4,63,"100978",5
866.1000000089407,698.368,444.416,true,2970.7999999970198,239150.29999999702,240456.39999999106,241322.5,"Scene59_CON.png","Scene59_SEM.png",240,80,4,87,"100978",5
3756.4000000059605,532.48,491.52,true,6063.5,245346.09999999404,246981.79999999702,250738.20000000298,"Scene6_CON.png","Scene6_SEM.png",240,80,5,90,"100978",5
17.099999994039536,585.728,292.864,true,1668.1000000089407,277250.89999999106,277904.5,277921.59999999404,"Scene31_CON.png","Scene31_SEM.png",240,80,2,105,"100978",5
447.20000000298023,223.232,620.544,true,1995.5999999940395,308546.299999997,309526,309973.200000003,"Scene45_CON.png","Scene45_SEM.png",240,80,3,123,"100978",5
418.6000000089407,956.416,282.624,true,1737.7999999970198,337576.5,338229.89999999106,338648.5,"Scene25_CON.png","Scene25_SEM.png",240,80,2,138,"100978",5
426.5,370.688,489.472,true,2243.7000000029802,342034.799999997,343337.200000003,343763.700000003,"Scene56_CON.png","Scene56_SEM.png",240,80,4,141,"100978",5
1912.800000011921,821.248,77.824,true,4296.899999991059,353511.700000003,355141.89999999106,357054.700000003,"Scene9_CON.png","Scene9_SEM.png",240,80,5,147,"100978",5
1561.7999999970198,286.72,315.392,true,3951.7999999970198,371304,372937.09999999404,374498.89999999106,"Scene10_CON.png","Scene10_SEM.png",240,80,5,156,"100978",5
467.40000000596046,90.112,530.432,true,2401,378001,379312.59999999404,379780,"Scene50_CON.png","Scene50_SEM.png",240,80,4,159,"100978",5
595.8999999910593,638.976,530.432,true,2697.2999999970198,383135,384435.700000003,385031.59999999404,"Scene55_CON.png","Scene55_SEM.png",240,80,4,162,"100978",5
384.5,526.336,262.144,true,2334.2000000029802,388610.39999999106,389915.200000003,390299.700000003,"Scene54_CON.png","Scene54_SEM.png",240,80,4,165,"100978",5
1127.7000000029802,350.208,544.768,true,2619.7999999970198,413576.09999999404,414551.59999999404,415679.299999997,"Scene49_CON.png","Scene49_SEM.png",240,80,3,180,"100978",5
546.5999999940395,206.848,509.952,true,2122.4000000059605,434994.799999997,435973.799999997,436520.39999999106,"Scene37_CON.png","Scene37_SEM.png",240,80,3,192,"100978",5
1015,903.168,591.872,true,2232.199999988079,89312.90000000596,89636.90000000596,90651.90000000596,"Scene38_CON.png","Scene38_SEM.png",240,80,1,15,"92883",3
559.7999999821186,751.616,473.088,true,1915.7999999821186,94717.30000001192,95366.40000000596,95926.19999998808,"Scene57_CON.png","Scene57_SEM.png",240,80,2,18,"92883",3
1165.699999988079,403.456,538.624,true,3096.5,104730.90000000596,106029.80000001192,107195.5,"Scene24_CON.png","Scene24_SEM.png",240,80,4,24,"92883",3
817.9000000059605,141.312,442.368,true,2736.699999988079,111297.90000000596,112595.59999999404,113413.5,"Scene13_CON.png","Scene13_SEM.png",240,80,4,27,"92883",3
1078.9000000059605,229.376,557.056,true,2005.800000011921,117152.59999999404,117477.59999999404,118556.5,"Scene45_CON.png","Scene45_SEM.png",240,80,1,30,"92883",3
517.7999999821186,307.2,595.968,true,2496.5,184503.09999999404,185802.40000000596,186320.19999998808,"Scene23_CON.png","Scene23_SEM.png",240,80,4,60,"92883",3
515.0999999940395,567.296,464.896,true,2012.5,223756.40000000596,224730.5,225245.59999999404,"Scene6_CON.png","Scene6_SEM.png",240,80,3,81,"92883",3
852.9000000059605,950.272,237.568,false,3289.7999999821186,228551.40000000596,230175.59999999404,231028.5,"Scene26_CON.png","Scene26_SEM.png",240,80,5,84,"92883",3
1049.800000011921,821.248,565.248,true,3313.7000000178814,240805.69999998808,242104.5,243154.30000001192,"Scene21_CON.png","Scene21_SEM.png",240,80,4,90,"92883",3
2499.600000023842,534.528,514.048,true,3998.7999999821186,246998.40000000596,247973.69999998808,250473.30000001192,"Scene12_CON.png","Scene12_SEM.png",240,80,3,93,"92883",3
2123,686.08,268.288,true,4129,253739.5,255038.59999999404,257161.59999999404,"Scene15_CON.png","Scene15_SEM.png",240,80,4,96,"92883",3
1053.9000000059605,481.28,524.288,true,3385.699999988079,277785.5,279413.59999999404,280467.5,"Scene27_CON.png","Scene27_SEM.png",240,80,5,108,"92883",3
855.9000000059605,628.736,600.064,true,2940.9000000059605,308311.90000000596,309615.1999999881,310471.09999999404,"Scene19_CON.png","Scene19_SEM.png",240,80,4,123,"92883",3
693.9000000059605,106.496,491.52,true,2113.199999988079,314050,314702,315395.90000000596,"Scene50_CON.png","Scene50_SEM.png",240,80,2,126,"92883",3
1031.5999999940395,669.696,395.264,true,1848.9000000059605,318987.1999999881,319311.3000000119,320342.90000000596,"Scene44_CON.png","Scene44_SEM.png",240,80,1,129,"92883",3
1084.5999999940395,514.048,489.472,true,2324.5999999940395,329239,329887.5,330972.09999999404,"Scene58_CON.png","Scene58_SEM.png",240,80,2,135,"92883",3
1205.800000011921,702.464,520.192,true,3574.2000000178814,334272.09999999404,335896,337101.8000000119,"Scene33_CON.png","Scene33_SEM.png",240,80,5,138,"92883",3
1095.699999988079,264.192,296.96,true,2772.5,390086.8000000119,391060.8000000119,392156.5,"Scene10_CON.png","Scene10_SEM.png",240,80,3,165,"92883",3
1442.5,741.376,387.072,true,2549.899999976158,412056.8000000119,412382.59999999404,413825.09999999404,"Scene46_CON.png","Scene46_SEM.png",240,80,1,177,"92883",3
1899.7999999821186,630.784,286.72,true,4463.5999999940395,439852.90000000596,441477.3000000119,443377.09999999404,"Scene36_CON.png","Scene36_SEM.png",240,80,5,192,"92883",3
664.4000000059605,589.824,284.672,true,3037.7999999821186,77534.80000001192,79153.09999999404,79817.5,"Scene31_CON.png","Scene31_SEM.png",240,80,5,9,"92883",3
711.9000000059605,534.528,335.872,true,1740.9000000059605,99801,100126.5,100838.40000000596,"Scene42_CON.png","Scene42_SEM.png",240,80,1,21,"92883",3
1777.1000000238419,550.912,346.112,true,3115.5,142376.40000000596,143024.69999998808,144801.80000001192,"Scene51_CON.png","Scene51_SEM.png",240,80,2,39,"92883",3
461.30000001192093,757.76,528.384,true,1750.2000000178814,167970.19999998808,168619.59999999404,169080.90000000596,"Scene59_CON.png","Scene59_SEM.png",240,80,2,51,"92883",3
1280.199999988079,653.312,489.472,true,2629.300000011921,194522.5,195171.5,196451.69999998808,"Scene55_CON.png","Scene55_SEM.png",240,80,2,66,"92883",3
868.7000000178814,534.528,253.952,true,2144.9000000059605,218653.5,219305.19999998808,220173.90000000596,"Scene54_CON.png","Scene54_SEM.png",240,80,2,78,"92883",3
1274.699999988079,200.704,452.608,true,3626.7000000178814,271456.09999999404,273080.3000000119,274355,"Scene29_CON.png","Scene29_SEM.png",240,80,5,105,"92883",3
3158.199999988079,184.32,501.76,true,4138.800000011921,283987.6999999881,284312.90000000596,287471.09999999404,"Scene37_CON.png","Scene37_SEM.png",240,80,1,111,"92883",3
1842,802.816,59.392,true,3718.5,290885.3000000119,291859.40000000596,293701.40000000596,"Scene9_CON.png","Scene9_SEM.png",240,80,3,114,"92883",3
488.90000000596046,419.84,612.352,true,1327.9000000059605,385593.6999999881,385917.6999999881,386406.59999999404,"Scene43_CON.png","Scene43_SEM.png",240,80,1,162,"92883",3
1762.2999999821186,364.544,534.528,true,3824.5999999940395,400893.40000000596,402194.90000000596,403957.1999999881,"Scene20_CON.png","Scene20_SEM.png",240,80,4,171,"92883",3
935.4000000059605,374.784,628.736,true,1999.699999988079,407397.40000000596,407721.1999999881,408656.59999999404,"Scene41_CON.png","Scene41_SEM.png",240,80,1,174,"92883",3
763.7999999821186,63.488,219.136,true,3517.5,428189.40000000596,429814.90000000596,430578.6999999881,"Scene30_CON.png","Scene30_SEM.png",240,80,5,186,"92883",3
9441.300000011921,925.696,229.376,true,12605.5,48822.90000000596,49146.09999999404,58587.40000000596,"example_a.jpg","example_b.jpg",240,80,1,5,"92883",3
931.4000000059605,501.76,337.92,true,2492,83733.90000000596,84702.69999998808,85634.09999999404,"Scene3_CON.png","Scene3_SEM.png",240,80,3,12,"92883",3
9244.199999988079,792.576,346.112,true,10972.59999999404,128316.59999999404,129290.40000000596,138534.59999999404,"Scene1_CON.png","Scene1_SEM.png",240,80,3,36,"92883",3
1506.1000000238419,821.248,405.504,true,2733.2000000178814,148483.09999999404,148807.19999998808,150313.30000001192,"Scene47_CON.png","Scene47_SEM.png",240,80,1,42,"92883",3
508.10000002384186,380.928,503.808,true,1717.9000000059605,162368.69999998808,163017.69999998808,163525.80000001192,"Scene56_CON.png","Scene56_SEM.png",240,80,2,48,"92883",3
1379.5999999940395,419.84,495.616,true,3361.600000023842,178053.69999998808,179352.90000000596,180732.5,"Scene16_CON.png","Scene16_SEM.png",240,80,4,57,"92883",3
672.9000000059605,43.008,380.928,true,3020.5999999940395,201244.5,202868.90000000596,203541.80000001192,"Scene35_CON.png","Scene35_SEM.png",240,80,5,69,"92883",3
1997.2000000178814,460.8,0,true,3747.199999988079,211946.40000000596,212923.19999998808,214920.40000000596,"Scene4_CON.png","Scene4_SEM.png",240,80,3,75,"92883",3
631,378.88,356.352,true,2620.7000000178814,260849.19999998808,262149.59999999404,262780.59999999404,"Scene14_CON.png","Scene14_SEM.png",240,80,4,99,"92883",3
2634.9000000059605,333.824,534.528,true,3699.800000011921,301845,302169.09999999404,304804,"Scene49_CON.png","Scene49_SEM.png",240,80,1,120,"92883",3
464.39999997615814,329.728,397.312,true,2914.7999999821186,323654.40000000596,325278.8000000119,325743.1999999881,"Scene28_CON.png","Scene28_SEM.png",240,80,5,132,"92883",3
542.3000000119209,600.064,458.752,true,2463.5999999940395,340564.40000000596,341863.59999999404,342405.90000000596,"Scene22_CON.png","Scene22_SEM.png",240,80,4,141,"92883",3
1338.699999988079,702.464,473.088,true,3203.9000000059605,345725.09999999404,347023.8000000119,348362.5,"Scene17_CON.png","Scene17_SEM.png",240,80,4,144,"92883",3
2715.0999999940395,598.016,432.128,true,4119.700000017881,373525.1999999881,374505,377220.09999999404,"Scene8_CON.png","Scene8_SEM.png",240,80,3,156,"92883",3
770.3000000119209,823.296,395.264,true,2405.7999999821186,380363.40000000596,381337.5,382107.8000000119,"Scene7_CON.png","Scene7_SEM.png",240,80,3,159,"92883",3
1200.7000000178814,362.496,647.168,true,2470.9000000059605,395549.09999999404,396197.59999999404,397398.3000000119,"Scene60_CON.png","Scene60_SEM.png",240,80,2,168,"92883",3
571.5999999940395,348.16,573.44,true,2063.4000000059605,434640.09999999404,435614.8000000119,436186.40000000596,"Scene11_CON.png","Scene11_SEM.png",240,80,3,189,"92883",3
1306.300000011921,157.696,421.888,true,2895.9000000059605,122238.40000000596,123214.5,124520.80000001192,"Scene5_CON.png","Scene5_SEM.png",240,80,3,33,"92883",3
2268,335.872,655.36,true,3642.5,154381.59999999404,155029.5,157297.5,"Scene52_CON.png","Scene52_SEM.png",240,80,2,45,"92883",3
556.4000000059605,319.488,380.928,true,2484.699999988079,172550.5,173849.90000000596,174406.30000001192,"Scene18_CON.png","Scene18_SEM.png",240,80,4,54,"92883",3
461,258.048,573.44,true,1693.1000000238419,190035.19999998808,190681.69999998808,191142.69999998808,"Scene53_CON.png","Scene53_SEM.png",240,80,2,63,"92883",3
952.5999999940395,307.2,563.2,true,1885.300000011921,207171.5,207495.59999999404,208448.19999998808,"Scene39_CON.png","Scene39_SEM.png",240,80,1,72,"92883",3
639.2000000178814,237.568,487.424,true,1732.9000000059605,236362.59999999404,236688.59999999404,237327.80000001192,"Scene40_CON.png","Scene40_SEM.png",240,80,1,87,"92883",3
782.5,165.888,714.752,true,2335.399999976158,266245.3000000119,266898,267680.5,"Scene62_CON.png","Scene62_SEM.png",240,80,2,102,"92883",3
752.5999999940395,559.104,458.752,true,1702.199999988079,297473.90000000596,297797.90000000596,298550.5,"Scene48_CON.png","Scene48_SEM.png",240,80,1,117,"92883",3
579.0999999940395,892.928,290.816,true,2882.2000000178814,352064.09999999404,353687.59999999404,354266.6999999881,"Scene25_CON.png","Scene25_SEM.png",240,80,5,147,"92883",3
4506.699999988079,716.8,589.824,true,6713.4000000059605,357714.40000000596,359341.8000000119,363848.5,"Scene34_CON.png","Scene34_SEM.png",240,80,5,150,"92883",3
1560,911.36,479.232,true,3338.199999988079,367239,368212.5,369772.5,"Scene2_CON.png","Scene2_SEM.png",240,80,3,153,"92883",3
1379,196.608,256,true,3654,417283.40000000596,417283.90000000596,418662.90000000596,"Scene32_CON.png","Scene32_SEM.png",240,80,5,180,"92883",3
367.69999998807907,798.72,616.448,true,1707.2000000178814,423707.09999999404,424358.5,424726.1999999881,"Scene61_CON.png","Scene61_SEM.png",240,80,2,183,"92883",3
4285.600000023842,206.848,505.856,true,6998.099999964237,101089.69999998808,101416.09999996424,105701.69999998808,"Scene37_CON.png","Scene37_SEM.png",240,80,1,9,"101754",3
1266,491.52,317.44,true,3246.300000011921,118784.59999996424,119788,121054,"Scene3_CON.png","Scene3_SEM.png",240,80,3,15,"101754",3
1588.7000000476837,927.744,245.76,true,4298.400000035763,88646.59999996424,88981.79999995232,90570.5,"example_a.jpg","example_b.jpg",240,80,1,5,"101754",3
707.6999999880791,233.472,528.384,true,3738.400000035763,159147.29999995232,160830.59999996424,161538.29999995232,"Scene29_CON.png","Scene29_SEM.png",240,80,5,33,"101754",3
754.4000000357628,518.144,460.8,true,3072,177771.59999996424,178763.79999995232,179518.19999998808,"Scene6_CON.png","Scene6_SEM.png",240,80,3,42,"101754",3
897.1999999880791,550.912,454.656,true,2478.600000023842,210207.79999995232,210532.69999998808,211429.89999997616,"Scene48_CON.png","Scene48_SEM.png",240,80,1,57,"101754",3
5341,757.76,364.544,true,7753.799999952316,251199.5,252209.5,257550.5,"Scene1_CON.png","Scene1_SEM.png",240,80,3,78,"101754",3
628.6000000238419,694.272,462.848,true,2801.300000011921,280737.89999997616,281394.7999999523,282023.39999997616,"Scene57_CON.png","Scene57_SEM.png",240,80,2,90,"101754",3
1257.5999999642372,612.352,581.632,true,4185.899999976158,321301.1999999881,322615.6999999881,323873.2999999523,"Scene19_CON.png","Scene19_SEM.png",240,80,4,96,"101754",3
729.9000000357628,180.224,569.344,true,2318,443016.09999996424,443355.2999999523,444085.1999999881,"Scene45_CON.png","Scene45_SEM.png",240,80,1,147,"101754",3
1501.8999999761581,745.472,403.456,true,3374,476128.89999997616,476453.39999997616,477955.2999999523,"Scene46_CON.png","Scene46_SEM.png",240,80,1,162,"101754",3
790.1999999880791,565.248,339.968,true,2772.600000023842,482428.89999997616,483091.1999999881,483881.39999997616,"Scene51_CON.png","Scene51_SEM.png",240,80,2,165,"101754",3
812,206.848,397.312,true,3322,503142.2999999523,504126.1999999881,504938.1999999881,"Scene5_CON.png","Scene5_SEM.png",240,80,3,174,"101754",3
1605.5,491.52,40.96,true,4285.199999988079,519194.39999997616,520195.5,521801,"Scene4_CON.png","Scene4_SEM.png",240,80,3,180,"101754",3
1513.9000000357628,933.888,493.568,true,4302.199999988079,111293.59999996424,112294.29999995232,113808.19999998808,"Scene2_CON.png","Scene2_SEM.png",240,80,3,12,"101754",3
1279.8999999761581,258.048,290.816,true,4463,131996.09999996424,133674.39999997616,134954.29999995232,"Scene32_CON.png","Scene32_SEM.png",240,80,5,21,"101754",3
810.8000000119209,124.928,440.32,true,3819.7000000476837,139847.79999995232,141175.19999998808,141986,"Scene13_CON.png","Scene13_SEM.png",240,80,4,24,"101754",3
700.8999999761581,57.344,538.624,true,2622.099999964237,165953.19999998808,166611.69999998808,167312.59999996424,"Scene50_CON.png","Scene50_SEM.png",240,80,2,36,"101754",3
673.4000000357628,694.272,286.72,true,3943.600000023842,183721.39999997616,185034.29999995232,185707.69999998808,"Scene15_CON.png","Scene15_SEM.png",240,80,4,45,"101754",3
940.1000000238419,542.72,317.44,true,2809.199999988079,197096,197436.09999996424,198376.19999998808,"Scene42_CON.png","Scene42_SEM.png",240,80,1,51,"101754",3
1177.2000000476837,563.2,487.424,true,3370.699999988079,227321.39999997616,228308.79999995232,229486,"Scene12_CON.png","Scene12_SEM.png",240,80,3,66,"101754",3
662.3000000119209,579.584,462.848,true,3479.699999988079,244898.09999996424,246216.59999996424,246878.89999997616,"Scene22_CON.png","Scene22_SEM.png",240,80,4,75,"101754",3
616.8999999761581,382.976,335.872,true,3223.199999988079,344827.89999997616,346143.89999997616,346760.7999999523,"Scene14_CON.png","Scene14_SEM.png",240,80,4,105,"101754",3
1892.300000011921,919.552,227.328,true,5050.900000035763,358258.09999996424,359897.1999999881,361789.5,"Scene26_CON.png","Scene26_SEM.png",240,80,5,111,"101754",3
747.1999999880791,329.728,661.504,true,3258.300000011921,366447.09999996424,367107.59999996424,367854.7999999523,"Scene60_CON.png","Scene60_SEM.png",240,80,2,114,"101754",3
662,475.136,468.992,true,2609.199999988079,431202.1999999881,431876.2999999523,432538.2999999523,"Scene58_CON.png","Scene58_SEM.png",240,80,2,141,"101754",3
1781.699999988079,827.392,83.968,true,4189.399999976158,456421,457425.59999996424,459207.2999999523,"Scene9_CON.png","Scene9_SEM.png",240,80,3,153,"101754",3
740.6999999880791,434.176,522.24,true,3710.599999964237,464193,465515.5,466256.1999999881,"Scene16_CON.png","Scene16_SEM.png",240,80,4,156,"101754",3
687,579.584,442.368,true,2260.2999999523163,471158.5,471486.6999999881,472173.6999999881,"Scene44_CON.png","Scene44_SEM.png",240,80,1,159,"101754",3
2929.100000023842,331.776,669.696,true,5106.199999988079,495118.6999999881,495779.09999996424,498708.1999999881,"Scene52_CON.png","Scene52_SEM.png",240,80,2,171,"101754",3
1704.699999988079,679.936,518.144,true,4940.699999988079,511380.5,513032.5,514737.1999999881,"Scene33_CON.png","Scene33_SEM.png",240,80,5,177,"101754",3
1412.300000011921,643.072,516.096,true,3625.600000023842,548468.2999999523,549131.5999999642,550543.8999999762,"Scene55_CON.png","Scene55_SEM.png",240,80,2,192,"101754",3
1066,817.152,421.888,true,3501,125188.09999996424,126188.5,127254.5,"Scene7_CON.png","Scene7_SEM.png",240,80,3,18,"101754",3
1231.5,237.568,473.088,true,3041,146965,147290.79999995232,148522.29999995232,"Scene40_CON.png","Scene40_SEM.png",240,80,1,27,"101754",3
563.5,532.48,278.528,true,2709.800000011921,153199.29999995232,153863.29999995232,154426.79999995232,"Scene54_CON.png","Scene54_SEM.png",240,80,2,30,"101754",3
1010.8000000119209,851.968,561.152,true,3262.699999988079,190778.69999998808,191109.19999998808,192120,"Scene38_CON.png","Scene38_SEM.png",240,80,1,48,"101754",3
1619.8999999761581,782.336,395.264,true,3262.800000011921,221236.69999998808,221567.69999998808,223187.59999996424,"Scene47_CON.png","Scene47_SEM.png",240,80,1,63,"101754",3
937.8000000119209,405.504,653.312,true,2816.300000011921,261787.39999997616,262113.19999998808,263051,"Scene41_CON.png","Scene41_SEM.png",240,80,1,81,"101754",3
3149.199999988079,897.024,321.536,true,6374.199999988079,328527.39999997616,330185,333334.1999999881,"Scene25_CON.png","Scene25_SEM.png",240,80,5,99,"101754",3
1029.199999988079,40.96,376.832,true,4251.800000011921,350978.09999996424,352619.1999999881,353648.39999997616,"Scene35_CON.png","Scene35_SEM.png",240,80,5,108,"101754",3
1099.4000000357628,497.664,501.76,true,4169.899999976158,373004.39999997616,374645.09999996424,375744.5,"Scene27_CON.png","Scene27_SEM.png",240,80,5,117,"101754",3
856.6999999880791,69.632,194.56,true,4031.5,386407.6999999881,388054.59999996424,388911.2999999523,"Scene30_CON.png","Scene30_SEM.png",240,80,5,123,"101754",3
4729.300000011921,692.224,581.632,true,8019.899999976158,399621.6999999881,401266.2999999523,405995.59999996424,"Scene34_CON.png","Scene34_SEM.png",240,80,5,129,"101754",3
920.5,466.944,407.552,true,2805.899999976158,410814.39999997616,411483.2999999523,412403.7999999523,"Scene56_CON.png","Scene56_SEM.png",240,80,2,132,"101754",3
842,305.152,587.776,true,2501.5,416304.2999999523,416637.09999996424,417479.09999996424,"Scene39_CON.png","Scene39_SEM.png",240,80,1,135,"101754",3
3012,618.496,311.296,true,6309.199999988079,422055.39999997616,423705.39999997616,426717.39999997616,"Scene36_CON.png","Scene36_SEM.png",240,80,5,138,"101754",3
634.6999999880791,368.64,419.84,true,3520.100000023842,436792.89999997616,438437,439071.6999999881,"Scene28_CON.png","Scene28_SEM.png",240,80,5,144,"101754",3
905.6000000238419,368.64,516.096,true,4223.199999988079,541147.5999999642,542474.8999999762,543380.5,"Scene20_CON.png","Scene20_SEM.png",240,80,4,189,"101754",3
651.3000000119209,436.224,565.248,true,2289.800000011921,172051.39999997616,172405.69999998808,173057,"Scene43_CON.png","Scene43_SEM.png",240,80,1,39,"101754",3
1192.800000011921,542.72,323.584,true,4158,203042.79999995232,204726.89999997616,205919.69999998808,"Scene31_CON.png","Scene31_SEM.png",240,80,5,54,"101754",3
585.3000000119209,636.928,438.272,true,2705.099999964237,215651,216335.19999998808,216920.5,"Scene59_CON.png","Scene59_SEM.png",240,80,2,60,"101754",3
926.9000000357628,325.632,536.576,true,2616.300000011921,233532.89999997616,233866.79999995232,234793.69999998808,"Scene49_CON.png","Scene49_SEM.png",240,80,1,69,"101754",3
620.6000000238419,204.8,626.688,true,2702,239087.5,239753.09999996424,240373.69999998808,"Scene53_CON.png","Scene53_SEM.png",240,80,2,72,"101754",3
718,686.08,460.8,true,3897.600000023842,267827.2999999523,269159.6999999881,269877.6999999881,"Scene17_CON.png","Scene17_SEM.png",240,80,4,84,"101754",3
657.1999999880791,829.44,608.256,true,2825.300000011921,274937.09999996424,275600.59999996424,276257.7999999523,"Scene61_CON.png","Scene61_SEM.png",240,80,2,87,"101754",3
2190.399999976158,616.448,393.216,true,4518.300000011921,286383.39999997616,287367.5,289557.89999997616,"Scene8_CON.png","Scene8_SEM.png",240,80,3,93,"101754",3
1591.4000000357628,143.36,661.504,true,4119.100000023842,337807.2999999523,338475.2999999523,340066.6999999881,"Scene62_CON.png","Scene62_SEM.png",240,80,2,102,"101754",3
701.5,423.936,641.024,true,3099.199999988079,380044.39999997616,381038.2999999523,381739.7999999523,"Scene11_CON.png","Scene11_SEM.png",240,80,3,120,"101754",3
490.60000002384186,366.592,595.968,true,3177.399999976158,393492.1999999881,394821.2999999523,395311.89999997616,"Scene24_CON.png","Scene24_SEM.png",240,80,4,126,"101754",3
863.1999999880791,813.056,573.44,true,3664.800000011921,448345.09999996424,449684,450547.1999999881,"Scene21_CON.png","Scene21_SEM.png",240,80,4,150,"101754",3
1393.7999999523163,395.264,409.6,true,4139.199999988079,488142.5,489481,490874.7999999523,"Scene18_CON.png","Scene18_SEM.png",240,80,4,168,"101754",3
1713.300000011921,278.528,612.352,true,4443.399999976158,526513.8999999762,527861.7999999523,529575.0999999642,"Scene23_CON.png","Scene23_SEM.png",240,80,4,183,"101754",3
1273.2000000476837,288.768,309.248,true,3777.7000000476837,534337.7999999523,535345.2999999523,536618.5,"Scene10_CON.png","Scene10_SEM.png",240,80,3,186,"101754",3
2527.7000000029802,915.456,239.616,true,3973.6000000089407,129917.70000000298,130241.40000000596,132769.10000000894,"example_a.jpg","example_b.jpg",240,80,1,5,"101177",1
615,311.296,608.256,true,2327.199999988079,198026.30000001192,199313.40000000596,199928.40000000596,"Scene39_CON.png","Scene39_SEM.png",240,80,4,36,"101177",1
1819.2000000029802,528.384,233.472,true,4057.6000000089407,175558.70000000298,177167.5,178986.70000000298,"Scene54_CON.png","Scene54_SEM.png",240,80,5,24,"101177",1
914.0999999940395,387.072,657.408,true,2902.7999999970198,207827.70000000298,209114.90000000596,210029,"Scene41_CON.png","Scene41_SEM.png",240,80,4,42,"101177",1
2503.7000000029802,477.184,503.808,true,4704.79999999702,219212.40000000596,220820.10000000894,223323.80000001192,"Scene58_CON.png","Scene58_SEM.png",240,80,5,48,"101177",1
977.8000000119209,354.304,460.8,true,3344.4000000059605,262521.5,264133.5,265111.3000000119,"Scene56_CON.png","Scene56_SEM.png",240,80,5,66,"101177",1
937.5999999940395,47.104,372.736,true,2632.0999999940395,269418.90000000596,270385.40000000596,271323,"Scene35_CON.png","Scene35_SEM.png",240,80,3,69,"101177",1
1631.1000000089407,360.448,681.984,true,3848.7999999970198,283059.40000000596,284669.200000003,286300.3000000119,"Scene52_CON.png","Scene52_SEM.png",240,80,5,75,"101177",1
1747.7999999970198,555.008,317.44,true,3618.300000011921,294937.5,296225.8000000119,297973.60000000894,"Scene42_CON.png","Scene42_SEM.png",240,80,4,81,"101177",1
1956.5,862.208,69.632,true,2790.5999999940395,313600.90000000596,313923.90000000596,315880.40000000596,"Scene9_CON.png","Scene9_SEM.png",240,80,1,90,"101177",1
826.9000000059605,694.272,507.904,true,2319.2000000029802,378119.700000003,379086.700000003,379913.60000000894,"Scene33_CON.png","Scene33_SEM.png",240,80,3,123,"101177",1
3142.5,718.848,438.272,true,5198.5,401579.90000000596,403187.40000000596,406329.90000000596,"Scene57_CON.png","Scene57_SEM.png",240,80,5,135,"101177",1
578.5,292.864,626.688,true,1614,445664,446309.700000003,446888.200000003,"Scene23_CON.png","Scene23_SEM.png",240,80,2,159,"101177",1
2620.7999999970198,473.088,49.152,true,3623.5999999940395,449839.40000000596,450163.10000000894,452783.90000000596,"Scene4_CON.png","Scene4_SEM.png",240,80,1,162,"101177",1
487.80000001192093,428.032,526.336,true,1671.7000000029802,459321.40000000596,459963.5,460451.3000000119,"Scene16_CON.png","Scene16_SEM.png",240,80,2,165,"101177",1
925.2000000029802,876.544,571.392,true,2573.9000000059605,494534.700000003,495822.700000003,496747.90000000596,"Scene38_CON.png","Scene38_SEM.png",240,80,4,186,"101177",1
686.9000000059605,88.064,483.328,true,2656.2999999970198,499701.8000000119,501313,501999.90000000596,"Scene50_CON.png","Scene50_SEM.png",240,80,5,189,"101177",1
634.4000000059605,925.696,243.712,true,2084.8999999910593,226735.10000000894,227716.5,228350.90000000596,"Scene26_CON.png","Scene26_SEM.png",240,80,3,51,"101177",1
4078,624.64,301.056,true,6342.79999999702,238520.70000000298,239488.5,243566.5,"Scene36_CON.png","Scene36_SEM.png",240,80,3,57,"101177",1
715.0999999940395,690.176,454.656,true,1982.5,309062.200000003,309707.3000000119,310422.40000000596,"Scene17_CON.png","Scene17_SEM.png",240,80,2,87,"101177",1
826.5999999940395,194.56,552.96,true,2366.300000011921,319313,320279.60000000894,321106.200000003,"Scene29_CON.png","Scene29_SEM.png",240,80,3,93,"101177",1
2471,679.936,430.08,true,4127.5999999940395,324809.8000000119,326097.8000000119,328568.8000000119,"Scene44_CON.png","Scene44_SEM.png",240,80,4,96,"101177",1
1503.199999988079,698.368,278.528,true,3112,350484.40000000596,351129.3000000119,352632.5,"Scene15_CON.png","Scene15_SEM.png",240,80,2,108,"101177",1
585.7999999970198,491.52,503.808,true,2223,373407.700000003,374372.3000000119,374958.10000000894,"Scene27_CON.png","Scene27_SEM.png",240,80,3,120,"101177",1
949,380.928,333.824,true,2040.2999999970198,396945.40000000596,397588.60000000894,398537.60000000894,"Scene14_CON.png","Scene14_SEM.png",240,80,2,132,"101177",1
995.6000000089407,899.072,550.912,true,3215.7000000029802,409299.60000000894,410908.700000003,411904.3000000119,"Scene59_CON.png","Scene59_SEM.png",240,80,5,138,"101177",1
465.20000000298023,260.096,262.144,true,2094.4000000059605,420540.90000000596,421507.40000000596,421972.60000000894,"Scene32_CON.png","Scene32_SEM.png",240,80,3,144,"101177",1
1332.5999999940395,65.536,219.136,true,2969.0999999940395,425268.3000000119,426234.3000000119,427566.90000000596,"Scene30_CON.png","Scene30_SEM.png",240,80,3,147,"101177",1
1898.7000000029802,434.176,647.168,true,4168.29999999702,430973.60000000894,432585.60000000894,434484.3000000119,"Scene60_CON.png","Scene60_SEM.png",240,80,5,150,"101177",1
857.1000000089407,888.832,282.624,true,2446.8999999910593,182319.80000001192,183286.70000000298,184143.80000001192,"Scene25_CON.png","Scene25_SEM.png",240,80,3,27,"101177",1
2840.1000000089407,507.904,374.784,true,3749.8999999910593,145541.30000001192,145864.70000000298,148704.80000001192,"Scene3_CON.png","Scene3_SEM.png",240,80,1,9,"101177",1
849.3000000119209,729.088,565.248,true,2406.8999999910593,187417.10000000894,188383.5,189232.80000001192,"Scene34_CON.png","Scene34_SEM.png",240,80,3,30,"101177",1
1368.7999999970198,800.768,425.984,true,3040.2000000029802,192458.90000000596,193746.60000000894,195115.40000000596,"Scene47_CON.png","Scene47_SEM.png",240,80,4,33,"101177",1
1959.2999999970198,837.632,583.68,true,4239.20000000298,231502.70000000298,233111.90000000596,235071.20000000298,"Scene61_CON.png","Scene61_SEM.png",240,80,5,54,"101177",1
4562.800000011921,786.432,362.496,true,5568,274635.200000003,274960,279522.8000000119,"Scene1_CON.png","Scene1_SEM.png",240,80,1,72,"101177",1
850.7000000029802,141.312,434.176,true,2166.6000000089407,289822.5,290466.700000003,291317.40000000596,"Scene13_CON.png","Scene13_SEM.png",240,80,2,78,"101177",1
2133.2999999970198,792.576,575.488,true,3383.5999999940395,301358.90000000596,302002.60000000894,304135.90000000596,"Scene21_CON.png","Scene21_SEM.png",240,80,2,84,"101177",1
705.7999999970198,573.44,372.736,true,1855.5,339147.10000000894,339469.60000000894,340175.40000000596,"Scene8_CON.png","Scene8_SEM.png",240,80,1,102,"101177",1
627.5,643.072,608.256,true,1966,357774.3000000119,358420.200000003,359047.700000003,"Scene19_CON.png","Scene19_SEM.png",240,80,2,111,"101177",1
436.1000000089407,628.736,454.656,true,1807.5,368902.8000000119,369547.700000003,369983.8000000119,"Scene22_CON.png","Scene22_SEM.png",240,80,2,117,"101177",1
532.8999999910593,567.296,550.912,true,1391.5999999940395,437822.8000000119,438146.3000000119,438679.200000003,"Scene12_CON.png","Scene12_SEM.png",240,80,1,153,"101177",1
561.0999999940395,544.768,473.088,true,1359.1000000089407,441759.200000003,442082.3000000119,442643.40000000596,"Scene6_CON.png","Scene6_SEM.png",240,80,1,156,"101177",1
599.7000000029802,186.368,569.344,true,2278.800000011921,468915.5,470204.10000000894,470803.8000000119,"Scene45_CON.png","Scene45_SEM.png",240,80,4,171,"101177",1
596.6000000089407,329.728,405.504,true,1718,473851.8000000119,474497.200000003,475093.8000000119,"Scene18_CON.png","Scene18_SEM.png",240,80,2,174,"101177",1
2401.6000000089407,223.232,565.248,true,4452,482091.90000000596,483704,486105.60000000894,"Scene53_CON.png","Scene53_SEM.png",240,80,5,180,"101177",1
1235.300000011921,847.872,380.928,true,2440.2999999970198,152420.90000000596,152744,153979.30000001192,"Scene7_CON.png","Scene7_SEM.png",240,80,1,12,"101177",1
1559.4000000059605,919.552,442.368,true,2370.7000000029802,157853.10000000894,158176.70000000298,159736.10000000894,"Scene2_CON.png","Scene2_SEM.png",240,80,1,15,"101177",1
2527.4000000059605,735.232,382.976,true,4543.20000000298,162878.20000000298,164167.90000000596,166695.30000001192,"Scene46_CON.png","Scene46_SEM.png",240,80,4,18,"101177",1
681.5,237.568,526.336,true,2696.5999999940395,170126.80000001192,171415.10000000894,172096.60000000894,"Scene40_CON.png","Scene40_SEM.png",240,80,4,21,"101177",1
1598.300000011921,155.648,393.216,true,2327.3999999910593,202963.10000000894,203287,204885.30000001192,"Scene5_CON.png","Scene5_SEM.png",240,80,1,39,"101177",1
720.1000000089407,634.88,503.808,true,2903.5999999940395,213580.40000000596,215191.20000000298,215911.30000001192,"Scene55_CON.png","Scene55_SEM.png",240,80,5,45,"101177",1
451.3999999910593,165.888,479.232,true,2301.2999999970198,250553.40000000596,251842.10000000894,252293.5,"Scene37_CON.png","Scene37_SEM.png",240,80,4,60,"101177",1
2079.4000000059605,419.84,651.264,true,2919.5,256706.10000000894,257029.40000000596,259108.80000001192,"Scene11_CON.png","Scene11_SEM.png",240,80,1,63,"101177",1
873.7000000029802,452.608,608.256,true,2495.1000000089407,331833.5,333122,333995.700000003,"Scene43_CON.png","Scene43_SEM.png",240,80,4,99,"101177",1
2377.2999999970198,563.2,509.952,true,4255.100000008941,343580,344868.90000000596,347246.200000003,"Scene48_CON.png","Scene48_SEM.png",240,80,4,105,"101177",1
1071.7999999970198,538.624,325.632,true,3234.5999999940395,362651.90000000596,364262.3000000119,365334.10000000894,"Scene51_CON.png","Scene51_SEM.png",240,80,5,114,"101177",1
2376.7000000029802,339.968,552.96,true,4013.3999999910593,383176.3000000119,384468.5,386845.200000003,"Scene49_CON.png","Scene49_SEM.png",240,80,4,126,"101177",1
2624.800000011921,370.688,536.576,true,3798.2000000029802,390192.40000000596,390838,393462.8000000119,"Scene20_CON.png","Scene20_SEM.png",240,80,2,129,"101177",1
950,358.4,405.504,true,2368.5999999940395,415411.90000000596,416380.5,417330.5,"Scene28_CON.png","Scene28_SEM.png",240,80,3,141,"101177",1
583.5,206.848,677.888,true,2713.1000000089407,463504.5,465115.700000003,465699.200000003,"Scene62_CON.png","Scene62_SEM.png",240,80,5,168,"101177",1
697.7999999970198,296.96,301.056,true,1390,478155.10000000894,478478.700000003,479176.5,"Scene10_CON.png","Scene10_SEM.png",240,80,1,177,"101177",1
1469.7999999970198,342.016,600.064,true,2551.699999988079,489131.8000000119,489777.200000003,491247,"Scene24_CON.png","Scene24_SEM.png",240,80,2,183,"101177",1
566.8999999910593,608.256,276.48,true,1941.1000000089407,504951.700000003,505919.8000000119,506486.700000003,"Scene31_CON.png","Scene31_SEM.png",240,80,3,192,"101177",1
1421.2000002861023,712.704,458.752,true,2784.7000002861023,148310.09999990463,148966,150387.2000002861,"Scene17_CON.png","Scene17_SEM.png",240,80,2,33,"101221",1
1490.0999999046326,139.264,407.552,true,2886.699999809265,101804.40000009537,102455.30000019073,103945.40000009537,"Scene13_CON.png","Scene13_SEM.png",240,80,2,12,"101221",1
735.1000003814697,239.616,274.432,true,2512.8999996185303,107683.7000002861,108655.59999990463,109390.7000002861,"Scene32_CON.png","Scene32_SEM.png",240,80,3,15,"101221",1
1662.3000001907349,696.32,505.856,true,3547.7000002861023,113732.09999990463,114705.90000009537,116368.2000002861,"Scene33_CON.png","Scene33_SEM.png",240,80,3,18,"101221",1
515.2999997138977,442.368,477.184,true,2878.800000190735,142568.5,144196.30000019073,144711.59999990463,"Scene58_CON.png","Scene58_SEM.png",240,80,5,30,"101221",1
537.9000000953674,253.952,563.2,true,2838.7000002861023,161119,162748.40000009537,163286.30000019073,"Scene53_CON.png","Scene53_SEM.png",240,80,5,39,"101221",1
522.7000002861023,747.52,391.168,true,2717,179044.2000002861,180350,180872.7000002861,"Scene46_CON.png","Scene46_SEM.png",240,80,4,48,"101221",1
3762,628.736,307.2,true,5475.400000095367,197417.80000019073,198397.59999990463,202159.59999990463,"Scene36_CON.png","Scene36_SEM.png",240,80,3,57,"101221",1
2745.199999809265,364.544,671.744,true,5039.900000095367,247049.09999990463,248679.2000002861,251424.40000009537,"Scene52_CON.png","Scene52_SEM.png",240,80,5,81,"101221",1
973.1999998092651,178.176,391.168,true,2267.4000000953674,261049.30000019073,261377.90000009537,262351.09999990463,"Scene5_CON.png","Scene5_SEM.png",240,80,1,87,"101221",1
3560.699999809265,669.696,479.232,true,5893.900000095367,273147.90000009537,274450.2000002861,278010.90000009537,"Scene44_CON.png","Scene44_SEM.png",240,80,4,93,"101221",1
689.9000000953674,413.696,518.144,true,2035.8000001907349,287696.59999990463,288350,289039.90000009537,"Scene16_CON.png","Scene16_SEM.png",240,80,2,99,"101221",1
420.59999990463257,573.44,518.144,true,1390.1999998092651,292457.2000002861,292780.7000002861,293201.30000019073,"Scene12_CON.png","Scene12_SEM.png",240,80,1,102,"101221",1
453.1000003814697,497.664,337.92,true,1360.3000001907349,296628.90000009537,296952.59999990463,297405.7000002861,"Scene3_CON.png","Scene3_SEM.png",240,80,1,105,"101221",1
470,339.968,647.168,true,2406.199999809265,306144.30000019073,307453.59999990463,307923.59999990463,"Scene39_CON.png","Scene39_SEM.png",240,80,4,111,"101221",1
456.09999990463257,917.504,284.672,true,2065.800000190735,335563.40000009537,336545.7000002861,337001.80000019073,"Scene25_CON.png","Scene25_SEM.png",240,80,3,126,"101221",1
463.3999996185303,538.624,315.392,true,2390.7999997138977,358923.30000019073,360231.2000002861,360694.59999990463,"Scene42_CON.png","Scene42_SEM.png",240,80,4,138,"101221",1
838,284.672,301.056,true,1827.6999998092651,391016.90000009537,391345.7000002861,392183.7000002861,"Scene10_CON.png","Scene10_SEM.png",240,80,1,153,"101221",1
710.8000001907349,823.296,393.216,true,2615.9000000953674,395875.59999990463,397180.59999990463,397891.40000009537,"Scene47_CON.png","Scene47_SEM.png",240,80,4,156,"101221",1
442.6000003814697,477.184,397.312,true,1356.1999998092651,441891.90000009537,442220.59999990463,442663.2000002861,"Scene8_CON.png","Scene8_SEM.png",240,80,1,174,"101221",1
518.9000000953674,505.856,509.952,true,2126.5,451193.2000002861,452177.90000009537,452696.80000019073,"Scene27_CON.png","Scene27_SEM.png",240,80,3,180,"101221",1
3520.699999809265,692.224,296.96,true,5136,184560.5,185216.80000019073,188737.5,"Scene15_CON.png","Scene15_SEM.png",240,80,2,51,"101221",1
635.5,837.632,593.92,true,3007.800000190735,229427.90000009537,231057.90000009537,231693.40000009537,"Scene61_CON.png","Scene61_SEM.png",240,80,5,72,"101221",1
735.7999997138977,745.472,479.232,true,3108.9000000953674,255150.09999990463,256780.7000002861,257516.5,"Scene59_CON.png","Scene59_SEM.png",240,80,5,84,"101221",1
577.6999998092651,352.256,563.2,true,2539.2999997138977,300699.30000019073,302004.30000019073,302582,"Scene49_CON.png","Scene49_SEM.png",240,80,4,108,"101221",1
883,509.952,284.672,true,3087.3999996185303,311396.2000002861,313031.2000002861,313914.2000002861,"Scene54_CON.png","Scene54_SEM.png",240,80,5,114,"101221",1
575.4000000953674,145.408,538.624,true,2641.7999997138977,340330.30000019073,341636.40000009537,342211.80000019073,"Scene37_CON.png","Scene37_SEM.png",240,80,4,129,"101221",1
723.9000000953674,350.208,618.496,true,1988.5,345762.80000019073,346418,347141.90000009537,"Scene23_CON.png","Scene23_SEM.png",240,80,2,132,"101221",1
3585.1000003814697,139.264,747.52,true,5954.10000038147,363906.09999990463,365532.59999990463,369117.7000002861,"Scene62_CON.png","Scene62_SEM.png",240,80,5,141,"101221",1
964.1000003814697,843.776,557.056,true,3247.1000003814697,372681.59999990463,373980.59999990463,374944.7000002861,"Scene38_CON.png","Scene38_SEM.png",240,80,4,144,"101221",1
1305.5,583.68,311.296,true,2853.7000002861023,378873,379853.5,381159,"Scene31_CON.png","Scene31_SEM.png",240,80,3,147,"101221",1
2016.5,825.344,555.008,true,3563.2000002861023,384783,385437.40000009537,387453.90000009537,"Scene21_CON.png","Scene21_SEM.png",240,80,2,150,"101221",1
10695.699999809265,923.648,331.776,false,11161.300000190735,405355,405681.90000009537,416377.59999990463,"Scene1_CON.png","Scene1_SEM.png",240,80,1,162,"101221",1
1192.5,593.92,581.632,true,2630.4000000953674,429491.90000009537,430146.59999990463,431339.09999990463,"Scene19_CON.png","Scene19_SEM.png",240,80,2,168,"101221",1
2200.0999999046326,22.528,387.072,true,4034.9000000953674,435098.59999990463,436076.5,438276.59999990463,"Scene35_CON.png","Scene35_SEM.png",240,80,3,171,"101221",1
1351.0999999046326,460.8,579.584,true,3194.2999997138977,461799.2000002861,463109.2000002861,464460.30000019073,"Scene43_CON.png","Scene43_SEM.png",240,80,4,186,"101221",1
547.8999996185303,563.2,491.52,true,1407,467750.40000009537,468076.7000002861,468624.59999990463,"Scene6_CON.png","Scene6_SEM.png",240,80,1,189,"101221",1
1986.3000001907349,567.296,473.088,true,3839.5,471791,473089.90000009537,475076.2000002861,"Scene48_CON.png","Scene48_SEM.png",240,80,4,192,"101221",1
1969.5999999046326,903.168,241.664,true,4203.400000095367,80388,80714.90000009537,82684.5,"example_a.jpg","example_b.jpg",240,80,1,5,"101221",1
3813.199999809265,339.968,325.632,true,6184.200000286102,120324.09999990463,120977.90000009537,124791.09999990463,"Scene14_CON.png","Scene14_SEM.png",240,80,2,21,"101221",1
3101.699999809265,362.496,561.152,true,4447.800000190735,129333.59999990463,129982.40000009537,133084.09999990463,"Scene24_CON.png","Scene24_SEM.png",240,80,2,24,"101221",1
511,897.024,251.904,true,2340.2000002861023,136644.09999990463,137628.7000002861,138139.7000002861,"Scene26_CON.png","Scene26_SEM.png",240,80,3,27,"101221",1
3348.0999999046326,450.56,43.008,true,4397.900000095367,153833.59999990463,154157.80000019073,157505.90000009537,"Scene4_CON.png","Scene4_SEM.png",240,80,1,36,"101221",1
496.09999990463257,245.76,475.136,true,3104.5,167012.09999990463,168316.5,168812.59999990463,"Scene40_CON.png","Scene40_SEM.png",240,80,4,42,"101221",1
738.4000000953674,413.696,417.792,true,2215.7000002861023,192561.09999990463,193543.30000019073,194281.7000002861,"Scene28_CON.png","Scene28_SEM.png",240,80,3,54,"101221",1
3045.7999997138977,798.72,409.6,true,4073.0999999046326,205685.7000002861,206008.7000002861,209054.5,"Scene7_CON.png","Scene7_SEM.png",240,80,1,60,"101221",1
679.6999998092651,215.04,530.432,true,2765.2999997138977,223686.2000002861,224667.30000019073,225347,"Scene29_CON.png","Scene29_SEM.png",240,80,3,69,"101221",1
959.5,40.96,210.944,true,2889.5,235507.7000002861,236482,237441.5,"Scene30_CON.png","Scene30_SEM.png",240,80,3,75,"101221",1
785,196.608,608.256,true,2703.5999999046326,241283.90000009537,242583.2000002861,243368.2000002861,"Scene45_CON.png","Scene45_SEM.png",240,80,4,78,"101221",1
1887,684.032,477.184,true,4156.099999904633,266298.5,267932.59999990463,269819.59999990463,"Scene55_CON.png","Scene55_SEM.png",240,80,5,90,"101221",1
497.90000009536743,768,452.608,true,2734.4000000953674,317147.90000009537,318780.59999990463,319278.5,"Scene57_CON.png","Scene57_SEM.png",240,80,5,117,"101221",1
3059.7000002861023,294.912,647.168,true,5581.900000095367,350499.59999990463,352130,355189.7000002861,"Scene60_CON.png","Scene60_SEM.png",240,80,5,135,"101221",1
488.2000002861023,602.112,462.848,true,1666.8000001907349,401091,401746,402234.2000002861,"Scene22_CON.png","Scene22_SEM.png",240,80,2,159,"101221",1
1765.2999997138977,286.72,503.808,true,4519.300000190735,422300.90000009537,423929.7000002861,425695,"Scene56_CON.png","Scene56_SEM.png",240,80,5,165,"101221",1
823.7999997138977,407.552,544.768,true,3032.0999999046326,455999,456653.7000002861,457477.5,"Scene20_CON.png","Scene20_SEM.png",240,80,2,183,"101221",1
4727.89999961853,933.888,493.568,true,6465.099999904633,92365.7000002861,92695.2000002861,97423.09999990463,"Scene2_CON.png","Scene2_SEM.png",240,80,1,9,"101221",1
1008.8000001907349,385.024,641.024,true,3076,173070,174374.90000009537,175383.7000002861,"Scene41_CON.png","Scene41_SEM.png",240,80,4,45,"101221",1
2138.9000000953674,724.992,581.632,true,3872.5,212520.7000002861,213502.80000019073,215641.7000002861,"Scene34_CON.png","Scene34_SEM.png",240,80,3,63,"101221",1
605,366.592,657.408,true,1578.4000000953674,219305.80000019073,219634,220239,"Scene11_CON.png","Scene11_SEM.png",240,80,1,66,"101221",1
1047,344.064,401.408,true,2343.9000000953674,282778.30000019073,283431.2000002861,284478.2000002861,"Scene18_CON.png","Scene18_SEM.png",240,80,2,96,"101221",1
2652.7999997138977,131.072,565.248,true,4829.300000190735,322948.09999990463,324583.30000019073,327236.09999990463,"Scene50_CON.png","Scene50_SEM.png",240,80,5,120,"101221",1
1321,851.968,83.968,true,2244.4000000953674,330560.80000019073,330887.30000019073,332208.30000019073,"Scene9_CON.png","Scene9_SEM.png",240,80,1,123,"101221",1
531.5999999046326,579.584,317.44,true,2848.9000000953674,445758.40000009537,447382.90000009537,447914.5,"Scene51_CON.png","Scene51_SEM.png",240,80,5,177,"101221",1
null,755.712,483.328,true,60889.800000071526,329937.5,330261,null,"Scene57_CON.png","Scene57_SEM.png",240,80,1,18,"100422",2
null,409.6,552.96,true,62720.5,121098.60000002384,122067.30000007153,null,"Scene20_CON.png","Scene20_SEM.png",240,80,3,9,"100422",2
null,942.08,505.856,true,61384.60000002384,927885.5,928535.5,null,"Scene2_CON.png","Scene2_SEM.png",240,80,2,45,"100422",2
null,845.824,622.592,true,63735.800000071526,394091.5,394417.60000002384,null,"Scene61_CON.png","Scene61_SEM.png",240,80,1,21,"100422",2
null,636.928,448.512,true,61102.799999952316,1057056.2000000477,1058683.9000000954,null,"Scene44_CON.png","Scene44_SEM.png",240,80,5,51,"100422",2
null,622.592,608.256,true,61360.89999997616,1320297.4000000954,1321271.2000000477,null,"Scene19_CON.png","Scene19_SEM.png",240,80,3,63,"100422",2
null,792.576,561.152,true,62955.800000071526,1384513,1385486.1000000238,null,"Scene21_CON.png","Scene21_SEM.png",240,80,3,66,"100422",2
null,565.248,518.144,true,61533.300000071526,2982441,2983094.3000000715,null,"Scene12_CON.png","Scene12_SEM.png",240,80,2,114,"100422",2
null,198.656,661.504,true,63689,1450904.1000000238,1451226.9000000954,null,"Scene62_CON.png","Scene62_SEM.png",240,80,1,69,"100422",2
null,567.296,307.2,true,65312,3316641.600000024,3316968.3000000715,null,"Scene54_CON.png","Scene54_SEM.png",240,80,1,129,"100422",2
null,370.688,647.168,true,65630.20000004768,2440532.7000000477,2442155.8000000715,null,"Scene41_CON.png","Scene41_SEM.png",240,80,5,90,"100422",2
null,69.632,217.088,true,61851.10000002384,3589362.5,3590661.9000000954,null,"Scene30_CON.png","Scene30_SEM.png",240,80,4,141,"100422",2
null,237.568,641.024,true,61482.60000002384,2715192.600000024,2716819.600000024,null,"Scene45_CON.png","Scene45_SEM.png",240,80,5,102,"100422",2
null,679.936,514.048,true,63331.299999952316,3982837.3000000715,3984141,null,"Scene33_CON.png","Scene33_SEM.png",240,80,4,159,"100422",2
null,710.656,561.152,true,62020.40000009537,3251565,3252869.600000024,null,"Scene34_CON.png","Scene34_SEM.png",240,80,4,126,"100422",2
null,321.536,413.696,true,64695.699999928474,4247623.900000095,4248600.600000024,null,"Scene18_CON.png","Scene18_SEM.png",240,80,3,168,"100422",2
null,544.768,503.808,true,62233.5,3514258.7000000477,3515884,null,"Scene48_CON.png","Scene48_SEM.png",240,80,5,138,"100422",2
null,425.984,606.208,true,61264.89999997616,4315120.200000048,4316093.900000095,null,"Scene24_CON.png","Scene24_SEM.png",240,80,3,171,"100422",2
null,331.776,413.696,true,63116.200000047684,3850564.600000024,3851538.2000000477,null,"Scene14_CON.png","Scene14_SEM.png",240,80,3,153,"100422",2
null,333.824,559.104,true,73658.5,4379370.100000024,4379693.400000095,null,"Scene56_CON.png","Scene56_SEM.png",240,80,1,174,"100422",2
null,425.984,442.368,true,64769.800000071526,4049071,4050376.3000000715,null,"Scene28_CON.png","Scene28_SEM.png",240,80,4,162,"100422",2
null,577.536,397.312,true,68879.89999997616,4552258.8000000715,4552584.600000024,null,"Scene51_CON.png","Scene51_SEM.png",240,80,1,177,"100422",2
null,212.992,546.816,true,61694.799999952316,4854536.900000095,4854860.200000048,null,"Scene53_CON.png","Scene53_SEM.png",240,80,1,189,"100422",2
null,927.744,243.712,true,67681.89999997616,44474.700000047684,44804.40000009537,null,"example_a.jpg","example_b.jpg",240,80,1,5,"100422",2
null,643.072,464.896,true,61268.60000002384,257977.30000007153,258301.70000004768,null,"Scene55_CON.png","Scene55_SEM.png",240,80,1,15,"100422",2
null,638.976,299.008,true,67414.60000002384,186965,188267.20000004768,null,"Scene36_CON.png","Scene36_SEM.png",240,80,4,12,"100422",2
null,559.104,352.256,true,65080.60000002384,461124.60000002384,462748.3000000715,null,"Scene42_CON.png","Scene42_SEM.png",240,80,5,24,"100422",2
null,544.768,495.616,true,62672.60000002384,599509.7000000477,600158.1000000238,null,"Scene6_CON.png","Scene6_SEM.png",240,80,2,30,"100422",2
null,425.984,647.168,true,61490.89999997616,665295.3000000715,665941,null,"Scene11_CON.png","Scene11_SEM.png",240,80,2,33,"100422",2
null,194.56,296.96,true,61431.89999997616,1121174.9000000954,1122473.7000000477,null,"Scene32_CON.png","Scene32_SEM.png",240,80,4,54,"100422",2
null,827.392,61.44,true,61380.10000002384,1255499.8000000715,1256150.8000000715,null,"Scene9_CON.png","Scene9_SEM.png",240,80,2,60,"100422",2
null,784.384,358.4,true,63714.89999997616,1517528.1000000238,1518176.6000000238,null,"Scene1_CON.png","Scene1_SEM.png",240,80,2,72,"100422",2
null,231.424,512,true,62274.300000071526,1654552.1000000238,1656178.5,null,"Scene40_CON.png","Scene40_SEM.png",240,80,5,78,"100422",2
null,700.416,280.576,true,67846.89999997616,2089057.9000000954,2090034.1000000238,null,"Scene15_CON.png","Scene15_SEM.png",240,80,3,81,"100422",2
null,243.712,309.248,true,61959.40000009537,2361474.5,2362126.2000000477,null,"Scene10_CON.png","Scene10_SEM.png",240,80,2,87,"100422",2
null,524.288,444.416,false,62129.699999928474,2517077.4000000954,2518700.8000000715,null,"Scene38_CON.png","Scene38_SEM.png",240,80,5,93,"100422",2
null,126.976,407.552,true,62136.200000047684,2583184.7000000477,2584169.8000000715,null,"Scene13_CON.png","Scene13_SEM.png",240,80,3,96,"100422",2
null,784.384,368.64,true,62573.300000071526,2648993,2650619.4000000954,null,"Scene47_CON.png","Scene47_SEM.png",240,80,5,99,"100422",2
null,514.048,352.256,true,63312.299999952316,2781152.2000000477,2781800.600000024,null,"Scene3_CON.png","Scene3_SEM.png",240,80,2,105,"100422",2
null,483.328,40.96,true,64094.89999997616,2847578.4000000954,2848226.5,null,"Scene4_CON.png","Scene4_SEM.png",240,80,2,108,"100422",2
null,761.856,399.36,true,65424.799999952316,3046759.4000000954,3048394.8000000715,null,"Scene46_CON.png","Scene46_SEM.png",240,80,5,117,"100422",2
null,731.136,483.328,true,62782.60000002384,3182775.5,3183100.2000000477,null,"Scene59_CON.png","Scene59_SEM.png",240,80,1,123,"100422",2
null,436.224,540.672,true,61011.5,3385042.7000000477,3386019.100000024,null,"Scene16_CON.png","Scene16_SEM.png",240,80,3,132,"100422",2
null,372.736,632.832,true,62709.89999997616,3719209.100000024,3720833.8000000715,null,"Scene43_CON.png","Scene43_SEM.png",240,80,5,147,"100422",2
null,57.344,362.496,true,61771.39999997616,3918088.3000000715,3919392.600000024,null,"Scene35_CON.png","Scene35_SEM.png",240,80,4,156,"100422",2
null,690.176,471.04,true,66736,529294.3000000715,530271.9000000954,null,"Scene17_CON.png","Scene17_SEM.png",240,80,3,27,"100422",2
null,516.096,526.336,true,65952.19999992847,730206.4000000954,731507.7000000477,null,"Scene27_CON.png","Scene27_SEM.png",240,80,4,36,"100422",2
null,509.952,481.28,true,61226.300000071526,799159.5,799486.3000000715,null,"Scene58_CON.png","Scene58_SEM.png",240,80,1,39,"100422",2
null,374.784,608.256,true,61175.299999952316,863540.4000000954,863870.1000000238,null,"Scene52_CON.png","Scene52_SEM.png",240,80,1,42,"100422",2
null,604.16,477.184,true,61414.90000009537,992455,993430.7000000477,null,"Scene22_CON.png","Scene22_SEM.png",240,80,3,48,"100422",2
null,299.008,653.312,true,66186.70000004768,1185830.2000000477,1186154.4000000954,null,"Scene60_CON.png","Scene60_SEM.png",240,80,1,57,"100422",2
null,628.736,432.128,true,63561.699999928474,1587185.9000000954,1587842.2000000477,null,"Scene8_CON.png","Scene8_SEM.png",240,80,2,75,"100422",2
null,335.872,530.432,true,65423.200000047684,2160192.5,2161822,null,"Scene49_CON.png","Scene49_SEM.png",240,80,5,84,"100422",2
null,614.4,274.432,true,63145.299999952316,2916303.9000000954,2917602.5,null,"Scene31_CON.png","Scene31_SEM.png",240,80,4,111,"100422",2
null,329.728,602.112,true,61955.300000071526,3117485.5,3118460.9000000954,null,"Scene23_CON.png","Scene23_SEM.png",240,80,3,120,"100422",2
null,780.288,391.168,true,61454.5,3449102.3000000715,3449753.9000000954,null,"Scene7_CON.png","Scene7_SEM.png",240,80,2,135,"100422",2
null,147.456,532.48,true,61296.300000071526,3654768.5,3655091.5,null,"Scene50_CON.png","Scene50_SEM.png",240,80,1,144,"100422",2
null,849.92,280.576,true,62438.10000002384,3784921.5,3786226.2000000477,null,"Scene25_CON.png","Scene25_SEM.png",240,80,4,150,"100422",2
null,944.128,301.056,true,70341.89999997616,4116496.3000000715,4117795.4000000954,null,"Scene26_CON.png","Scene26_SEM.png",240,80,4,165,"100422",2
null,294.912,440.32,true,61703.200000047684,4624044.5,4625343.100000024,null,"Scene29_CON.png","Scene29_SEM.png",240,80,4,180,"100422",2
null,208.896,501.76,true,82156.09999990463,4688526.400000095,4690144.200000048,null,"Scene37_CON.png","Scene37_SEM.png",240,80,5,183,"100422",2
null,155.648,423.936,true,77332.60000002384,4773451.100000024,4774101.700000048,null,"Scene5_CON.png","Scene5_SEM.png",240,80,2,186,"100422",2
null,311.296,616.448,true,62281.39999997616,4919055.8000000715,4920683.5,null,"Scene39_CON.png","Scene39_SEM.png",240,80,5,192,"100422",2
5125.999999999767,403.456,671.744,true,6295,2092063,2092387.0000000002,2097513,"Scene11_CON.png","Scene11_SEM.png",240,80,1,9,"101009",1
3091,778.24,364.544,false,4798,2108488,2109134,2112225,"Scene23_CON.png","Scene23_SEM.png",240,80,2,15,"101009",1
1643,800.768,391.168,true,3759,2117950,2119240.0000000005,2120883.0000000005,"Scene47_CON.png","Scene47_SEM.png",240,80,4,18,"101009",1
1784,194.56,403.456,true,2921,2163947,2164270,2166054,"Scene5_CON.png","Scene5_SEM.png",240,80,1,39,"101009",1
1428,253.952,606.208,true,3809,2175058,2176668,2178096,"Scene53_CON.png","Scene53_SEM.png",240,80,5,45,"101009",1
1323,53.248,200.704,true,3378,2194109,2195079,2196402,"Scene30_CON.png","Scene30_SEM.png",240,80,3,54,"101009",1
1021,884.736,282.624,true,3079,2219181,2220152,2221173,"Scene26_CON.png","Scene26_SEM.png",240,80,3,66,"101009",1
1523,206.848,505.856,true,3632,2240945,2241913,2243436,"Scene29_CON.png","Scene29_SEM.png",240,80,3,75,"101009",1
1502,419.84,516.096,true,3061,2276995,2277640,2279142,"Scene16_CON.png","Scene16_SEM.png",240,80,2,90,"101009",1
1585.9999999995343,380.928,616.448,true,4002,2377087,2378700.0000000005,2380286,"Scene52_CON.png","Scene52_SEM.png",240,80,5,120,"101009",1
1159,747.52,489.472,true,3628,2383922,2385533,2386692,"Scene59_CON.png","Scene59_SEM.png",240,80,5,123,"101009",1
6141,512,520.192,true,7851,2565934,2566902,2573043,"Scene27_CON.png","Scene27_SEM.png",240,80,3,192,"101009",1
1826.9999999995343,315.392,411.648,true,3353,2132094,2132740.0000000005,2134567,"Scene18_CON.png","Scene18_SEM.png",240,80,2,24,"101009",1
917,522.24,360.448,true,2081,2154408,2154732,2155649,"Scene3_CON.png","Scene3_SEM.png",240,80,1,33,"101009",1
897,468.992,378.88,true,2037,2169869,2170193,2171090,"Scene8_CON.png","Scene8_SEM.png",240,80,1,42,"101009",1
1041,301.056,397.312,true,2752,2206730,2207698,2208739,"Scene28_CON.png","Scene28_SEM.png",240,80,3,60,"101009",1
1765.0000000004657,368.64,446.464,true,4177.999999999534,2225365.0000000005,2226975,2228740.0000000005,"Scene56_CON.png","Scene56_SEM.png",240,80,5,69,"101009",1
875,395.264,593.92,true,2887,2253931,2255222,2256097,"Scene43_CON.png","Scene43_SEM.png",240,80,4,81,"101009",1
2497,391.168,645.12,true,4851,2268714,2270003,2272500,"Scene41_CON.png","Scene41_SEM.png",240,80,4,87,"101009",1
2036.9999999995343,630.784,309.248,true,4171,2291789,2292758.0000000005,2294795,"Scene36_CON.png","Scene36_SEM.png",240,80,3,96,"101009",1
1554,518.144,202.752,true,3815.9999999995343,2390662.0000000005,2392274,2393828,"Scene54_CON.png","Scene54_SEM.png",240,80,5,126,"101009",1
2437,903.168,495.616,true,3578,2397287.0000000005,2397611,2400048,"Scene2_CON.png","Scene2_SEM.png",240,80,1,129,"101009",1
4720.000000000466,706.56,516.096,true,6532,2403657,2404625,2409345.0000000005,"Scene33_CON.png","Scene33_SEM.png",240,80,3,132,"101009",1
1066,331.776,606.208,true,3259,2473810,2475101,2476167,"Scene39_CON.png","Scene39_SEM.png",240,80,4,156,"101009",1
1065,538.624,495.616,true,3260,2514709,2515997,2517062,"Scene48_CON.png","Scene48_SEM.png",240,80,4,174,"101009",1
5607.999999999534,505.856,63.488,true,7284,2537002,2537325.0000000005,2542933,"Scene4_CON.png","Scene4_SEM.png",240,80,1,183,"101009",1
820,444.416,489.472,true,3252,2547663,2549274,2550094,"Scene58_CON.png","Scene58_SEM.png",240,80,5,186,"101009",1
3504,368.64,555.008,true,5689,2557199,2558491,2561995,"Scene49_CON.png","Scene49_SEM.png",240,80,4,189,"101009",1
38621,866.304,692.224,false,40333,2041397,2041721,2080342,"example_a.jpg","example_b.jpg",240,80,1,5,"101009",1
1731,114.688,536.576,true,4560,2124519,2126130,2127861,"Scene50_CON.png","Scene50_SEM.png",240,80,5,21,"101009",1
810,534.528,489.472,true,1855,2159227,2159550,2160360,"Scene6_CON.png","Scene6_SEM.png",240,80,1,36,"101009",1
1023,516.096,276.48,true,2826,2181867,2182835,2183858,"Scene31_CON.png","Scene31_SEM.png",240,80,3,48,"101009",1
1951.9999999995343,131.072,522.24,true,3956.9999999995343,2212240.0000000005,2213528.0000000005,2215480,"Scene37_CON.png","Scene37_SEM.png",240,80,4,63,"101009",1
2216,864.256,86.016,true,3359,2247417,2247741,2249957,"Scene9_CON.png","Scene9_SEM.png",240,80,1,78,"101009",1
3429,202.752,688.128,true,5883,2282864,2284477,2287906,"Scene62_CON.png","Scene62_SEM.png",240,80,5,93,"101009",1
906,806.912,577.536,true,2663.9999999995343,2306653.0000000005,2307302,2308208,"Scene21_CON.png","Scene21_SEM.png",240,80,2,99,"101009",1
2684,638.976,593.92,true,4537,2336223,2336869,2339553,"Scene19_CON.png","Scene19_SEM.png",240,80,2,102,"101009",1
1755,403.456,544.768,true,3400,2343577,2344222,2345977,"Scene20_CON.png","Scene20_SEM.png",240,80,2,105,"101009",1
1265,722.944,483.328,true,3660,2356913,2358525,2359790,"Scene57_CON.png","Scene57_SEM.png",240,80,5,111,"101009",1
3023,679.936,270.336,true,4635,2413221,2413867,2416890,"Scene15_CON.png","Scene15_SEM.png",240,80,2,135,"101009",1
1081,274.432,317.44,true,2202,2437949,2438272,2439353,"Scene10_CON.png","Scene10_SEM.png",240,80,1,144,"101009",1
3338,43.008,372.736,true,5188.999999999534,2459133.0000000005,2460100,2463438,"Scene35_CON.png","Scene35_SEM.png",240,80,3,150,"101009",1
2085,399.36,575.488,true,3476,2467458,2468103,2470188,"Scene24_CON.png","Scene24_SEM.png",240,80,2,153,"101009",1
721,606.208,475.136,true,2091.9999999995343,2489171.0000000005,2489816.0000000005,2490537.0000000005,"Scene22_CON.png","Scene22_SEM.png",240,80,2,162,"101009",1
967,698.368,589.824,true,2699,2494687,2495654,2496621,"Scene34_CON.png","Scene34_SEM.png",240,80,3,165,"101009",1
1023,210.944,489.472,true,3353,2500465,2501753,2502776,"Scene40_CON.png","Scene40_SEM.png",240,80,4,168,"101009",1
3281.0000000004657,661.504,417.792,true,5549.000000000466,2506613,2507901,2511182.0000000005,"Scene44_CON.png","Scene44_SEM.png",240,80,4,171,"101009",1
3524,253.952,591.872,true,5777,2527612,2528900,2532424,"Scene45_CON.png","Scene45_SEM.png",240,80,4,180,"101009",1
2027,208.896,288.768,true,4024,2101661,2102628,2104655,"Scene32_CON.png","Scene32_SEM.png",240,80,3,12,"101009",1
4402,854.016,577.536,true,6493.000000000466,2138448,2139739,2144141,"Scene38_CON.png","Scene38_SEM.png",240,80,4,27,"101009",1
2274.9999999995343,868.352,403.456,true,3421,2148137,2148461.0000000005,2150736,"Scene7_CON.png","Scene7_SEM.png",240,80,1,30,"101009",1
1117,552.96,344.064,true,3802,2187464,2189077,2190194,"Scene51_CON.png","Scene51_SEM.png",240,80,5,51,"101009",1
891,135.168,428.032,true,2755,2200527,2201172,2202063,"Scene13_CON.png","Scene13_SEM.png",240,80,2,57,"101009",1
4763,544.768,538.624,true,5780,2232290,2232613,2237376,"Scene12_CON.png","Scene12_SEM.png",240,80,1,72,"101009",1
1184.0000000004657,796.672,595.968,true,3847,2259915,2261527,2262711.0000000005,"Scene61_CON.png","Scene61_SEM.png",240,80,5,84,"101009",1
1487,729.088,401.408,true,3705.9999999995343,2350287.0000000005,2351580,2353067,"Scene46_CON.png","Scene46_SEM.png",240,80,4,108,"101009",1
957,718.848,471.04,true,2586,2363785,2364431,2365388,"Scene17_CON.png","Scene17_SEM.png",240,80,2,114,"101009",1
2032,647.168,489.472,true,4491,2369270,2370881,2372913,"Scene55_CON.png","Scene55_SEM.png",240,80,5,117,"101009",1
5498,788.48,356.352,true,6606,2420967,2421290,2426788,"Scene1_CON.png","Scene1_SEM.png",240,80,1,138,"101009",1
2328,575.488,325.632,true,4554,2430267,2431556,2433884,"Scene42_CON.png","Scene42_SEM.png",240,80,4,141,"101009",1
1359,378.88,356.352,true,2817,2443113,2443759,2445118,"Scene14_CON.png","Scene14_SEM.png",240,80,2,147,"101009",1
2679,458.752,655.36,true,5017,2480677,2482289,2484968,"Scene60_CON.png","Scene60_SEM.png",240,80,5,159,"101009",1
1172,907.264,268.288,true,2991,2521294,2522261,2523433,"Scene25_CON.png","Scene25_SEM.png",240,80,3,177,"101009",1
1390.7999999970198,933.888,225.28,true,2474.89999999851,75505.89999999851,75828.5,77219.29999999702,"example_a.jpg","example_b.jpg",240,80,1,5,"85294",5
4660.39999999851,362.496,649.216,true,6766.70000000298,554599.299999997,555887.8999999985,560548.299999997,"Scene52_CON.png","Scene52_SEM.png",240,80,4,36,"85294",5
2348,352.256,417.792,true,3510.5,504575,504897.299999997,507245.299999997,"Scene18_CON.png","Scene18_SEM.png",240,80,1,15,"85294",5
833.8000000044703,389.12,634.88,true,2948.6999999955297,543072.6000000015,544037.299999997,544871.1000000015,"Scene41_CON.png","Scene41_SEM.png",240,80,3,30,"85294",5
1736.1999999955297,790.528,565.248,true,2812.7000000029802,579136.6999999955,579459.5,581195.6999999955,"Scene21_CON.png","Scene21_SEM.png",240,80,1,48,"85294",5
547.8000000044703,608.256,452.608,true,1268.7999999970198,584552.3999999985,584873.6999999955,585421.5,"Scene22_CON.png","Scene22_SEM.png",240,80,1,51,"85294",5
1185.3000000044703,542.72,516.096,true,2662.10000000149,593519.3999999985,594485.1999999955,595670.5,"Scene48_CON.png","Scene48_SEM.png",240,80,3,57,"85294",5
631.8999999985099,555.008,362.496,true,2653.39999999851,648839.6000000015,650447.8999999985,651079.799999997,"Scene3_CON.png","Scene3_SEM.png",240,80,5,90,"85294",5
448.3999999985099,286.72,604.16,true,2046,674599.1999999955,675567.6000000015,676016,"Scene39_CON.png","Scene39_SEM.png",240,80,3,102,"85294",5
1051.6000000014901,675.84,450.56,true,1932.8999999985099,694024.6000000015,694346.6999999955,695398.299999997,"Scene17_CON.png","Scene17_SEM.png",240,80,1,111,"85294",5
934.1000000014901,432.128,520.192,true,1918,702951.299999997,703273.3999999985,704207.5,"Scene16_CON.png","Scene16_SEM.png",240,80,1,117,"85294",5
413.29999999701977,913.408,307.2,true,1814.5,716975.799999997,717619.6000000015,718032.8999999985,"Scene25_CON.png","Scene25_SEM.png",240,80,2,126,"85294",5
1802.7000000029802,516.096,77.824,true,3925.2999999970198,747815.5,749425.1999999955,751227.8999999985,"Scene4_CON.png","Scene4_SEM.png",240,80,5,144,"85294",5
1242.5,620.544,495.616,true,3293.2000000029802,796151.799999997,797440.299999997,798682.799999997,"Scene55_CON.png","Scene55_SEM.png",240,80,4,171,"85294",5
1725.1000000014901,692.224,278.528,true,2710.60000000149,805871,806194.1999999955,807919.299999997,"Scene15_CON.png","Scene15_SEM.png",240,80,1,177,"85294",5
1272.3999999985099,57.344,380.928,true,3005.39999999851,811272.1000000015,811916.6000000015,813189,"Scene35_CON.png","Scene35_SEM.png",240,80,2,180,"85294",5
518.1000000014901,749.568,491.52,true,2583,816815,818103.5,818621.6000000015,"Scene59_CON.png","Scene59_SEM.png",240,80,4,183,"85294",5
1436.5,538.624,393.216,true,3724.89999999851,510592.3999999985,512201.69999999553,513638.19999999553,"Scene8_CON.png","Scene8_SEM.png",240,80,5,18,"85294",5
1127.9000000059605,225.28,589.824,true,2963.10000000149,516865.3999999985,517832.69999999553,518960.6000000015,"Scene45_CON.png","Scene45_SEM.png",240,80,3,21,"85294",5
388.6000000014901,849.92,376.832,true,3045.39999999851,548800,550409.8999999985,550798.5,"Scene7_CON.png","Scene7_SEM.png",240,80,5,33,"85294",5
736.1000000014901,546.816,346.112,true,2628.3000000044703,568512.6999999955,569798.799999997,570534.8999999985,"Scene51_CON.png","Scene51_SEM.png",240,80,4,42,"85294",5
644,399.36,641.024,true,2797.2000000029802,598960.299999997,600568.6000000015,601212.6000000015,"Scene11_CON.png","Scene11_SEM.png",240,80,5,60,"85294",5
560.3999999985099,798.72,65.536,true,2765.10000000149,619304.3999999985,620913.8999999985,621474.299999997,"Scene9_CON.png","Scene9_SEM.png",240,80,5,72,"85294",5
3319.60000000149,356.352,528.384,true,4438.19999999553,628879.1000000015,629201.799999997,632521.3999999985,"Scene20_CON.png","Scene20_SEM.png",240,80,1,78,"85294",5
825.4000000059605,618.496,299.008,true,2021.3000000044703,644208.299999997,644852.6999999955,645678.1000000015,"Scene36_CON.png","Scene36_SEM.png",240,80,2,87,"85294",5
1085.8999999985099,561.152,548.864,true,3077.5,679176.1000000015,680785,681870.8999999985,"Scene12_CON.png","Scene12_SEM.png",240,80,5,105,"85294",5
541.8000000044703,782.336,569.344,true,1613.8999999985099,698487.8999999985,699131.299999997,699673.1000000015,"Scene34_CON.png","Scene34_SEM.png",240,80,2,114,"85294",5
561.3999999985099,284.672,290.816,true,1709.7999999970198,727639.3999999985,728283.5,728844.8999999985,"Scene32_CON.png","Scene32_SEM.png",240,80,2,132,"85294",5
931,276.48,301.056,true,3332.60000000149,758936.1999999955,760546.799999997,761477.799999997,"Scene10_CON.png","Scene10_SEM.png",240,80,5,150,"85294",5
2992,153.6,151.552,true,4342,764791.5,765435.3999999985,768427.3999999985,"Scene30_CON.png","Scene30_SEM.png",240,80,2,153,"85294",5
617.3999999985099,360.448,669.696,true,2484.39999999851,776648.8999999985,777938.1000000015,778555.5,"Scene60_CON.png","Scene60_SEM.png",240,80,4,159,"85294",5
632,303.104,415.744,true,1939.8999999985099,821945,822590,823222,"Scene29_CON.png","Scene29_SEM.png",240,80,2,186,"85294",5
1142.6000000014901,542.72,274.432,true,2789.2999999970198,826392.1000000015,827680.5,828823.1000000015,"Scene54_CON.png","Scene54_SEM.png",240,80,4,189,"85294",5
3466.10000000149,180.224,514.048,true,5083.5,85985.89999999851,87010.89999999851,90477,"Scene37_CON.png","Scene37_SEM.png",240,80,3,9,"85294",5
5386.60000000149,604.16,591.872,true,9837.60000000149,93983.69999999553,94306.79999999702,99693.39999999851,"Scene19_CON.png","Scene19_SEM.png",240,80,1,12,"85294",5
875.1999999955297,737.28,483.328,true,2764.89999999851,524256.8999999985,525541.6000000015,526416.799999997,"Scene57_CON.png","Scene57_SEM.png",240,80,4,24,"85294",5
8285.89999999851,176.128,385.024,true,10692.79999999702,529784.6000000015,531395.299999997,539681.1999999955,"Scene5_CON.png","Scene5_SEM.png",240,80,5,27,"85294",5
1108.6999999955297,888.832,602.112,true,2500.1999999955297,588352.6000000015,589317.6000000015,590426.299999997,"Scene38_CON.png","Scene38_SEM.png",240,80,3,54,"85294",5
1328.1999999955297,536.576,479.232,true,3437.6999999955297,604359.6000000015,605970.6000000015,607298.799999997,"Scene6_CON.png","Scene6_SEM.png",240,80,5,63,"85294",5
675.1000000014901,446.464,415.744,true,2412.39999999851,614440.1000000015,615727,616402.1000000015,"Scene56_CON.png","Scene56_SEM.png",240,80,4,69,"85294",5
947.1000000014901,237.568,675.84,true,3021.7000000029802,659127.3999999985,660415.799999997,661362.8999999985,"Scene62_CON.png","Scene62_SEM.png",240,80,4,96,"85294",5
1384.1000000014901,442.368,475.136,true,3005.89999999851,664911.5,666195.8999999985,667580,"Scene58_CON.png","Scene58_SEM.png",240,80,4,99,"85294",5
1457.8999999985099,782.336,370.688,true,3620.8000000044703,721408.299999997,723018.299999997,724476.1999999955,"Scene1_CON.png","Scene1_SEM.png",240,80,5,129,"85294",5
1046,763.904,372.736,false,1757,743183.299999997,743505.299999997,744551.299999997,"Scene23_CON.png","Scene23_SEM.png",240,80,1,141,"85294",5
462,802.816,397.312,true,1750.2999999970198,754631,755595.299999997,756057.299999997,"Scene47_CON.png","Scene47_SEM.png",240,80,3,147,"85294",5
520.7999999970198,487.424,509.952,true,1788.5999999940395,564112.6000000015,564757,565277.799999997,"Scene27_CON.png","Scene27_SEM.png",240,80,2,39,"85294",5
1460.7999999970198,690.176,509.952,true,2780.89999999851,573744.1000000015,574388,575848.799999997,"Scene33_CON.png","Scene33_SEM.png",240,80,2,45,"85294",5
523.5999999940395,454.656,428.032,true,1613,610384.299999997,611027.6000000015,611551.1999999955,"Scene28_CON.png","Scene28_SEM.png",240,80,2,66,"85294",5
520.5,126.976,430.08,true,1589.1000000014901,624768.1999999955,625090.6000000015,625611.1000000015,"Scene13_CON.png","Scene13_SEM.png",240,80,1,75,"85294",5
483.79999999701977,626.688,415.744,true,1876.3999999985099,635912.8999999985,636878.8999999985,637362.6999999955,"Scene44_CON.png","Scene44_SEM.png",240,80,3,81,"85294",5
603.5,360.448,364.544,true,1413.5,640207.6000000015,640529.1999999955,641132.6999999955,"Scene14_CON.png","Scene14_SEM.png",240,80,1,84,"85294",5
714.3000000044703,229.376,602.112,true,2525.2000000029802,654024.1999999955,655311.799999997,656026.1000000015,"Scene53_CON.png","Scene53_SEM.png",240,80,4,93,"85294",5
2081.5,720.896,401.408,true,3629.8000000044703,687767.6999999955,688731.6000000015,690813.1000000015,"Scene46_CON.png","Scene46_SEM.png",240,80,3,108,"85294",5
334.1000000014901,786.432,600.064,true,2317.7000000029802,707383.3999999985,708671.799999997,709005.8999999985,"Scene61_CON.png","Scene61_SEM.png",240,80,4,120,"85294",5
472.40000000596046,577.536,348.16,true,1997.1999999955297,712344.1000000015,713310.1999999955,713782.6000000015,"Scene42_CON.png","Scene42_SEM.png",240,80,3,123,"85294",5
1011.1000000014901,952.32,501.76,true,2997.3000000044703,731904.1999999955,733513.299999997,734524.3999999985,"Scene2_CON.png","Scene2_SEM.png",240,80,5,135,"85294",5
1720.8999999985099,362.496,522.24,true,3117.7000000029802,737543.6999999955,738508.1000000015,740229,"Scene49_CON.png","Scene49_SEM.png",240,80,3,138,"85294",5
518.8999999985099,520.192,589.824,true,1917.8999999985099,771983.299999997,772950.1000000015,773469,"Scene43_CON.png","Scene43_SEM.png",240,80,3,156,"85294",5
1267.6000000014901,151.552,524.288,true,3084.7000000029802,781823.8999999985,783113.3999999985,784381,"Scene50_CON.png","Scene50_SEM.png",240,80,4,162,"85294",5
492,557.056,284.672,true,1573,787464.3999999985,788108.1000000015,788600.1000000015,"Scene31_CON.png","Scene31_SEM.png",240,80,2,165,"85294",5
468.3999999985099,217.088,514.048,true,1885.1999999955297,791712,792678.1000000015,793146.5,"Scene40_CON.png","Scene40_SEM.png",240,80,3,168,"85294",5
582,440.32,569.344,true,1357.6999999955297,801992,802314.299999997,802896.299999997,"Scene24_CON.png","Scene24_SEM.png",240,80,1,174,"85294",5
506.3999999985099,901.12,253.952,true,1780.3999999985099,831808.3999999985,832453.5,832959.8999999985,"Scene26_CON.png","Scene26_SEM.png",240,80,2,192,"85294",5
1752.5,210.944,608.256,true,3146.5,88787.70000004768,89110.80000007153,90863.30000007153,"Scene45_CON.png","Scene45_SEM.png",240,80,1,15,"101234",3
463.1999999284744,667.648,479.232,true,2959.600000023842,135626.70000004768,136917.80000007153,137381,"Scene17_CON.png","Scene17_SEM.png",240,80,4,36,"101234",3
559,139.264,692.224,true,2482.899999976158,117313.5,117961,118520,"Scene62_CON.png","Scene62_SEM.png",240,80,2,27,"101234",3
545.6000000238419,147.456,151.552,true,3637.7999999523163,128747.20000004768,130361.5,130907.10000002384,"Scene30_CON.png","Scene30_SEM.png",240,80,5,33,"101234",3
603.2999999523163,319.488,675.84,true,2535.5,223125.80000007153,223770.70000004768,224374,"Scene60_CON.png","Scene60_SEM.png",240,80,2,48,"101234",3
890.8000000715256,817.152,409.6,true,2296.399999976158,256018.60000002384,256341.5,257232.30000007153,"Scene47_CON.png","Scene47_SEM.png",240,80,1,63,"101234",3
1017.5,208.896,466.944,true,2433.9000000953674,318554.39999997616,318878.39999997616,319895.89999997616,"Scene37_CON.png","Scene37_SEM.png",240,80,1,81,"101234",3
739.2000000476837,733.184,466.944,true,2408,344281.2000000477,344925,345664.2000000477,"Scene57_CON.png","Scene57_SEM.png",240,80,2,93,"101234",3
650.3000000715256,352.256,348.16,true,3361.7000000476837,349789,351079.89999997616,351730.2000000477,"Scene14_CON.png","Scene14_SEM.png",240,80,4,96,"101234",3
599.2000000476837,671.744,514.048,true,3546.5,377456,379069.5,379668.7000000477,"Scene33_CON.png","Scene33_SEM.png",240,80,5,108,"101234",3
488,169.984,395.264,true,2561.6999999284744,419444.7000000477,420412.2000000477,420900.2000000477,"Scene5_CON.png","Scene5_SEM.png",240,80,3,129,"101234",3
525.8000000715256,456.704,567.296,true,1825.8999999761581,442547,442870.89999997616,443396.7000000477,"Scene43_CON.png","Scene43_SEM.png",240,80,1,141,"101234",3
442.90000009536743,712.704,296.96,true,3104.8000000715256,474803.39999997616,476092.39999997616,476535.3000000715,"Scene15_CON.png","Scene15_SEM.png",240,80,4,156,"101234",3
496.60000002384186,333.824,382.976,true,2830.2000000476837,486872,488160.39999997616,488657,"Scene18_CON.png","Scene18_SEM.png",240,80,4,162,"101234",3
420.09999990463257,520.192,362.496,true,2390.6999999284744,503158.8000000715,504124.3000000715,504544.39999997616,"Scene3_CON.png","Scene3_SEM.png",240,80,3,171,"101234",3
467.5,200.704,509.952,true,3165.600000023842,523073.2000000477,524686.1000000238,525153.6000000238,"Scene29_CON.png","Scene29_SEM.png",240,80,5,180,"101234",3
446,536.576,473.088,true,2540.899999976158,529361.2000000477,530329.5,530775.5,"Scene6_CON.png","Scene6_SEM.png",240,80,3,183,"101234",3
1045.1000000238419,671.744,475.136,true,2729.100000023842,534957.7000000477,535602.6000000238,536647.7000000477,"Scene59_CON.png","Scene59_SEM.png",240,80,2,186,"101234",3
867.3999999761581,737.28,395.264,true,2384.399999976158,82140,82464.70000004768,83332.10000002384,"Scene46_CON.png","Scene46_SEM.png",240,80,1,12,"101234",3
761.8999999761581,36.864,376.832,true,3973.5,104351.89999997616,105964.20000004768,106726.10000002384,"Scene35_CON.png","Scene35_SEM.png",240,80,5,21,"101234",3
1977.6000000238419,438.272,22.528,true,4442.299999952316,148342.80000007153,149312.10000002384,151289.70000004768,"Scene4_CON.png","Scene4_SEM.png",240,80,3,42,"101234",3
985.5,614.4,309.248,true,3853.7999999523163,243132.20000004768,244743.39999997616,245728.89999997616,"Scene36_CON.png","Scene36_SEM.png",240,80,5,57,"101234",3
1544.3999999761581,647.168,610.304,true,3897.7999999523163,273190.60000002384,274482.10000002384,276026.5,"Scene19_CON.png","Scene19_SEM.png",240,80,4,72,"101234",3
822.6000000238419,606.208,296.96,true,3478.399999976158,311876.10000002384,313486.5,314309.10000002384,"Scene31_CON.png","Scene31_SEM.png",240,80,5,78,"101234",3
1483,538.624,286.72,true,3219.399999976158,329498.10000002384,330144.5,331627.5,"Scene54_CON.png","Scene54_SEM.png",240,80,2,87,"101234",3
692.5,366.592,661.504,true,2235.2000000476837,371778,372422.7000000477,373115.2000000477,"Scene52_CON.png","Scene52_SEM.png",240,80,2,105,"101234",3
504.7000000476837,854.016,573.44,true,2123.399999976158,394601.7000000477,394926.60000002384,395431.3000000715,"Scene38_CON.png","Scene38_SEM.png",240,80,1,117,"101234",3
472.10000002384186,290.816,591.872,true,3107.1999999284744,399802.3000000715,401092.7000000477,401564.8000000715,"Scene23_CON.png","Scene23_SEM.png",240,80,4,120,"101234",3
488.5,905.216,489.472,true,3016.2000000476837,413357.10000002384,414326.2000000477,414814.7000000477,"Scene2_CON.png","Scene2_SEM.png",240,80,3,126,"101234",3
411.89999997615814,630.784,485.376,true,2079.1999999284744,424949.7000000477,425594.8000000715,426006.7000000477,"Scene55_CON.png","Scene55_SEM.png",240,80,2,132,"101234",3
649.5999999046326,419.84,557.056,true,2987,430038.8000000715,431326.8000000715,431976.39999997616,"Scene24_CON.png","Scene24_SEM.png",240,80,4,135,"101234",3
476.89999997615814,575.488,403.456,true,2724.600000023842,455058.60000002384,456025.60000002384,456502.5,"Scene8_CON.png","Scene8_SEM.png",240,80,3,147,"101234",3
1013,339.968,509.952,true,2408.0999999046326,469465.8000000715,469790.3000000715,470803.3000000715,"Scene49_CON.png","Scene49_SEM.png",240,80,1,153,"101234",3
775.9000000953674,382.976,534.528,true,3247.6999999284744,545923.2000000477,547210.3999999762,547986.3000000715,"Scene20_CON.png","Scene20_SEM.png",240,80,4,192,"101234",3
2893.6999999284744,919.552,245.76,true,5009.399999976158,58218.800000071526,58544.200000047684,61437.89999997616,"example_a.jpg","example_b.jpg",240,80,1,5,"101234",3
686.6999999284744,860.16,79.872,true,3324.1999999284744,74983.80000007153,75952.70000004768,76639.39999997616,"Scene9_CON.png","Scene9_SEM.png",240,80,3,9,"101234",3
793.2999999523163,397.312,612.352,true,2854.1999999284744,95415.70000004768,96384.60000002384,97177.89999997616,"Scene11_CON.png","Scene11_SEM.png",240,80,3,18,"101234",3
556.5,204.8,604.16,true,2452,111679.60000002384,112326.5,112883,"Scene53_CON.png","Scene53_SEM.png",240,80,2,24,"101234",3
960.6000000238419,405.504,694.272,true,2481.399999976158,122817.60000002384,123141.5,124102.10000002384,"Scene41_CON.png","Scene41_SEM.png",240,80,1,30,"101234",3
1133.5999999046326,540.672,514.048,true,2743.8000000715256,215418,215741.30000007153,216874.89999997616,"Scene48_CON.png","Scene48_SEM.png",240,80,1,45,"101234",3
603.3999999761581,81.92,538.624,true,2490.100000023842,229023.5,229668.60000002384,230272,"Scene50_CON.png","Scene50_SEM.png",240,80,2,51,"101234",3
2396.0999999046326,471.04,485.376,true,5045.100000023842,235069,236681.30000007153,239077.39999997616,"Scene27_CON.png","Scene27_SEM.png",240,80,5,54,"101234",3
658.6999999284744,880.64,407.552,true,2786.5999999046326,250012.80000007153,250980.80000007153,251639.5,"Scene7_CON.png","Scene7_SEM.png",240,80,3,60,"101234",3
424.7999999523163,385.024,464.896,true,2077.600000023842,389550.7000000477,390197.3000000715,390622.10000002384,"Scene56_CON.png","Scene56_SEM.png",240,80,2,114,"101234",3
2016,716.8,577.536,true,4896.199999928474,460852.3000000715,462463.8000000715,464479.8000000715,"Scene34_CON.png","Scene34_SEM.png",240,80,5,150,"101234",3
483.1999999284744,544.768,526.336,true,2665.100000023842,511325.2000000477,512291.2000000477,512774.39999997616,"Scene12_CON.png","Scene12_SEM.png",240,80,3,174,"101234",3
476.89999997615814,368.64,395.264,true,3209.9000000953674,517061.89999997616,518672.60000002384,519149.5,"Scene28_CON.png","Scene28_SEM.png",240,80,5,177,"101234",3
686.2999999523163,466.944,475.136,true,2106.7999999523163,540738.1000000238,541383.8000000715,542070.1000000238,"Scene58_CON.png","Scene58_SEM.png",240,80,2,189,"101234",3
766.5,133.12,393.216,true,3547,141658.10000002384,142948.89999997616,143715.39999997616,"Scene13_CON.png","Scene13_SEM.png",240,80,4,39,"101234",3
467.5,593.92,440.32,true,2869.1999999284744,261697.70000004768,262988.39999997616,263455.89999997616,"Scene22_CON.png","Scene22_SEM.png",240,80,4,66,"101234",3
382.1999999284744,800.768,591.872,true,2533.5,267444.5,268089.8000000715,268472,"Scene61_CON.png","Scene61_SEM.png",240,80,2,69,"101234",3
24503,776.192,354.304,true,26522.699999928474,281500.2000000477,282469.5,306972.5,"Scene1_CON.png","Scene1_SEM.png",240,80,3,75,"101234",3
438,573.44,329.728,true,2264.600000023842,324245,324890.2000000477,325328.2000000477,"Scene51_CON.png","Scene51_SEM.png",240,80,2,84,"101234",3
529.6999999284744,911.36,292.864,true,3489.6999999284744,335859.3000000715,337470.8000000715,338000.5,"Scene25_CON.png","Scene25_SEM.png",240,80,5,90,"101234",3
1016.8000000715256,618.496,493.568,true,2591.8000000715256,356503.89999997616,356827.39999997616,357844.2000000477,"Scene44_CON.png","Scene44_SEM.png",240,80,1,99,"101234",3
759.6999999284744,833.536,579.584,true,3344.5,362717.8000000715,364007.8000000715,364767.5,"Scene21_CON.png","Scene21_SEM.png",240,80,4,102,"101234",3
624.6000000238419,227.328,483.328,true,2377.4000000953674,384176.89999997616,384501.10000002384,385125.7000000477,"Scene40_CON.png","Scene40_SEM.png",240,80,1,111,"101234",3
702.3999999761581,952.32,268.288,true,3576.6999999284744,406642.7000000477,408253.10000002384,408955.5,"Scene26_CON.png","Scene26_SEM.png",240,80,5,123,"101234",3
689.6000000238419,212.992,268.288,true,3419.5999999046326,436087.8000000715,437700.7000000477,438390.3000000715,"Scene32_CON.png","Scene32_SEM.png",240,80,5,138,"101234",3
426.5,327.68,641.024,true,1897.1999999284744,447571.8000000715,447895.7000000477,448322.2000000477,"Scene39_CON.png","Scene39_SEM.png",240,80,1,144,"101234",3
499.8000000715256,425.984,518.144,true,3105.899999976158,480866.2000000477,482154.89999997616,482654.7000000477,"Scene16_CON.png","Scene16_SEM.png",240,80,4,159,"101234",3
531.1000000238419,301.056,305.152,true,2501.899999976158,492691.3000000715,493660.10000002384,494191.2000000477,"Scene10_CON.png","Scene10_SEM.png",240,80,3,165,"101234",3
484.1999999284744,546.816,337.92,true,2039.8999999761581,498308.60000002384,498632.8000000715,499117,"Scene42_CON.png","Scene42_SEM.png",240,80,1,168,"101234",3
507.8999999985099,337.92,393.216,true,3021.699999999255,384915.09999999776,386539.3999999985,387047.299999997,"Scene18_CON.png","Scene18_SEM.png",240,80,5,21,"95044",4
3864.39999999851,438.272,526.336,true,6216.89999999851,414352.19999999925,415976.3999999985,419840.799999997,"Scene16_CON.png","Scene16_SEM.png",240,80,5,33,"95044",4
766.1999999992549,73.728,245.76,true,1902.199999999255,478007.09999999776,478333.59999999776,479099.799999997,"Scene30_CON.png","Scene30_SEM.png",240,80,1,60,"95044",4
1373.300000000745,305.152,550.912,true,2664.599999997765,549045.1999999993,549694.3999999985,551067.6999999993,"Scene39_CON.png","Scene39_SEM.png",240,80,2,93,"95044",4
836,686.08,509.952,true,1979.2999999970198,560562.5,560886.299999997,561722.299999997,"Scene33_CON.png","Scene33_SEM.png",240,80,1,99,"95044",4
2651.199999999255,403.456,548.864,true,5188.099999997765,627067.6999999993,628694.3999999985,631345.5999999978,"Scene20_CON.png","Scene20_SEM.png",240,80,5,135,"95044",4
1131.5,188.416,716.8,true,2776.5,938960.299999997,939944.0999999978,941075.5999999978,"Scene62_CON.png","Scene62_SEM.png",240,80,3,141,"95044",4
1415.199999999255,458.752,47.104,true,3449.2000000029802,972393.299999997,973690.6999999993,975105.8999999985,"Scene4_CON.png","Scene4_SEM.png",240,80,4,159,"95044",4
708,333.824,569.344,true,1941,1015232.3999999985,1015881.3999999985,1016589.3999999985,"Scene49_CON.png","Scene49_SEM.png",240,80,2,183,"95044",4
1297.9000000022352,618.496,462.848,true,2474.60000000149,1020105.5999999978,1020757.0999999978,1022055,"Scene44_CON.png","Scene44_SEM.png",240,80,2,186,"95044",4
527.8999999985099,905.216,311.296,true,1567.699999999255,1025153,1025477,1026004.8999999985,"Scene25_CON.png","Scene25_SEM.png",240,80,1,189,"95044",4
2310.2999999970198,587.776,448.512,true,4584.5,361352.8999999985,362977,365287.299999997,"Scene22_CON.png","Scene22_SEM.png",240,80,5,9,"95044",4
1058.1000000014901,686.08,284.672,true,3675.39999999851,390702.69999999925,392326.8999999985,393385,"Scene15_CON.png","Scene15_SEM.png",240,80,5,24,"95044",4
2229.699999999255,522.24,468.992,true,4161.89999999851,407011.69999999925,408313.8999999985,410543.59999999776,"Scene6_CON.png","Scene6_SEM.png",240,80,4,30,"95044",4
490.0999999977648,212.992,477.184,true,1649.800000000745,430977.69999999925,431301.69999999925,431791.799999997,"Scene29_CON.png","Scene29_SEM.png",240,80,1,39,"95044",4
